GPST,Ax,Ay,Az,Gx,Gy,Gz
390884.272,-1.83384355,-9.6693569,1.4121575999999998,-0.042,-0.014,-0.027
390884.312,-1.7161637499999998,-9.5516771,1.36312435,-0.018,-0.058,0.003
390884.352,-1.61809725,-9.5320638,1.32389775,-0.016,-0.115,0.044
390884.392,-1.5004174499999998,-9.63993695,1.2944778,-0.018,-0.15,0.031
390884.432,-1.3533177,-9.71839015,1.36312435,-0.018,-0.104,0.027
390884.472,-1.3337044,-9.38496405,1.28467115,0.002,-0.09,0.07
390884.512,-1.372931,-9.7281968,1.4219642499999998,-0.01,0.012,0.049
390884.552,-1.59848395,-9.6301303,1.1964112999999998,-0.024,0.036,0.017
390884.592,-1.52003075,-9.5516771,1.3337044,0.016,-0.074,0.053
390884.632,-1.55925735,-9.65955025,1.4808041499999998,-0.007,0.04,0.07
390884.672,-1.8436502,-9.60071035,1.1179581,-0.006,-0.048,-0.001
390884.712,-1.569064,-9.99297635,1.46119085,0.027,-0.076,-0.005
390884.752,-1.67693715,-9.63993695,1.20621795,0.04,-0.026,0.021
390884.792,-1.46119085,-9.5712904,1.1571847,0.078,-0.161,0.029
390884.832,-1.2552512,-9.6889702,1.4808041499999998,0.069,0.006,0.003
390884.872,-1.4121575999999998,-9.54187045,1.0983448,0.053,0.127,-0.01
390884.912,-1.4317708999999998,-9.48303055,1.2356379,0.051,0.069,-0.025
390884.952,-1.36312435,-9.54187045,1.4121575999999998,0.037,0.162,-0.064
390884.992,-1.57887065,-9.52225715,1.32389775,0.028,0.24,-0.076
390885.032,-1.7848102999999995,-9.4536106,1.2944778,0.014,0.175,-0.109
390885.072,-1.7161637499999998,-9.502643849999998,1.4317708999999998,0.005,0.149,-0.118
390885.112,-1.8044236,-9.610517,1.4317708999999998,0.004,0.154,-0.089
390885.151,-1.7946169499999998,-9.67916355,1.4709975,0.019,0.132,-0.051
390885.191,-1.7357770499999998,-9.60071035,1.44157755,0.042,0.071,0.013
390885.231,-1.6082906,-9.62032365,1.5494507,0.046,0.03,0.017
390885.271,-1.4906107999999998,-9.5516771,1.5494507,0.042,0.031,0.009
390885.311,-1.4317708999999998,-9.52225715,1.61809725,0.041,0.036,0.005
390885.351,-1.4513842,-9.58109705,1.57887065,0.034,0.077,-0.009
390885.391,-1.4709975,-9.610517,1.55925735,0.034,0.09,-0.021
390885.431,-1.5298374,-9.48303055,1.4906107999999998,0.026,0.079,-0.018
390885.471,-1.5004174499999998,-9.610517,1.4513842,0.022,0.058,-0.034
390885.511,-1.5102240999999998,-9.4339973,1.5102240999999998,0.003,0.077,-0.049
390885.551,-1.59848395,-9.46341725,1.5102240999999998,-0.015,0.065,-0.046
390885.591,-1.6279039,-9.52225715,1.569064,-0.021,0.071,-0.023
390885.631,-1.7357770499999998,-9.610517,1.5298374,-0.023,0.058,0.006
390885.671,-1.7161637499999998,-9.5516771,1.55925735,-0.011,0.004,0.015
390885.711,-1.63771055,-9.5124505,1.53964405,-0.005,-0.027,0.032
390885.751,-1.5494507,-9.6497436,1.46119085,0.003,-0.058,0.031
390885.791,-1.3925442999999995,-9.6889702,1.5004174499999998,0.014,-0.051,0.028
390885.831,-1.372931,-9.6889702,1.5004174499999998,0.019,0.011,0.013
390885.871,-1.3337044,-9.502643849999998,1.4709975,0.032,0.037,0.004
390885.911,-1.30428445,-9.5124505,1.53964405,0.038,0.106,0.005
390885.951,-1.4317708999999998,-9.5516771,1.4513842,0.027,0.19,-0.005
390885.991,-1.53964405,-9.58109705,1.52003075,0.015,0.199,-0.03
390886.031,-1.6475172,-9.62032365,1.61809725,0.024,0.215,-0.03
390886.071,-1.7946169499999998,-9.6497436,1.569064,0.055,0.17,-0.022
390886.111,-1.85345685,-9.60071035,1.59848395,0.063,0.083,-0.019
390886.151,-1.75539035,-9.54187045,1.569064,0.073,0.019,-0.011
390886.19,-1.6475172,-9.590903699999998,1.63771055,0.068,-0.009,0.005
390886.23,-1.6082906,-9.40457735,1.57887065,0.052,-0.022,-0.003
390886.27,-1.55925735,-9.502643849999998,1.6671305,0.033,-0.018,-0.019
390886.31,-1.569064,-9.5320638,1.61809725,0.028,-0.007,-0.007
390886.35,-1.5494507,-9.42419065,1.7357770499999998,0.011,0.026,0.009
390886.39,-1.6965504499999997,-9.44380395,1.53964405,-0.007,0.008,-0.002
390886.43,-1.59848395,-9.46341725,1.7063570999999995,-0.022,-0.065,-0.027
390886.47,-1.5298374,-9.4732239,1.67693715,-0.032,-0.032,0.007
390886.51,-1.569064,-9.42419065,1.61809725,-0.04,-0.028,0.021
390886.55,-1.52003075,-9.5320638,1.65732385,-0.051,-0.011,0.012
390886.59,-1.569064,-9.58109705,1.6475172,-0.058,0.027,0.019
390886.63,-1.59848395,-9.5516771,1.67693715,-0.048,-0.004,0.012
390886.67,-1.5494507,-9.58109705,1.7259703999999998,-0.034,-0.004,0.012
390886.71,-1.5886772999999998,-9.52225715,1.6475172,-0.018,-0.018,0.007
390886.75,-1.57887065,-9.62032365,1.6671305,-0.021,-0.014,-0.01
390886.79,-1.59848395,-9.60071035,1.63771055,-0.017,0.007,-0.012
390886.83,-1.6867437999999997,-9.5712904,1.7063570999999995,-0.013,0.031,0.007
390886.87,-1.7946169499999998,-9.54187045,1.4709975,0.008,-0.028,0.007
390886.91,-1.6279039,-9.6301303,1.569064,0.017,-0.086,0.01
390886.95,-1.569064,-9.5124505,1.4906107999999998,0.011,-0.063,0.017
390886.99,-1.52003075,-9.3751574,1.52003075,-0.01,-0.056,-0.002
390887.03,-1.61809725,-9.502643849999998,1.5102240999999998,-0.046,-0.013,-0.033
390887.07,-1.6475172,-9.62032365,1.57887065,-0.041,-0.028,-0.025
390887.11,-1.6475172,-9.62032365,1.6082906,-0.011,0.009,0.009
390887.15,-1.6965504499999997,-9.5124505,1.569064,-0.006,-0.051,0.011
390887.19,-1.55925735,-9.5124505,1.6279039,-0.004,-0.036,-0.016
390887.23,-1.55925735,-9.5712904,1.57887065,-0.003,-0.003,-0.013
390887.27,-1.5494507,-9.5320638,1.61809725,-0.005,0.046,-0.012
390887.309,-1.6671305,-9.5320638,1.61809725,-0.006,0.103,-0.009
390887.349,-1.7848102999999995,-9.56148375,1.57887065,0.0,0.077,-0.008
390887.389,-1.7848102999999995,-9.5516771,1.6082906,0.007,0.035,0.012
390887.429,-1.7455836999999998,-9.58109705,1.5886772999999998,0.016,0.006,0.016
390887.469,-1.61809725,-9.5124505,1.52003075,0.024,-0.045,0.01
390887.509,-1.46119085,-9.610517,1.6867437999999997,0.015,-0.015,-0.004
390887.549,-1.55925735,-9.3555441,1.6475172,-0.003,0.064,-0.03
390887.589,-1.6475172,-9.56148375,1.59848395,0.006,0.057,-0.046
390887.629,-1.765197,-9.65955025,1.5886772999999998,-0.002,0.057,-0.023
390887.669,-1.8240369,-9.502643849999998,1.57887065,-0.006,-0.019,-0.017
390887.709,-1.7357770499999998,-9.4928372,1.6965504499999997,-0.0,-0.061,-0.02
390887.749,-1.6965504499999997,-9.4536106,1.59848395,-0.005,-0.09,-0.01
390887.789,-1.569064,-9.48303055,1.61809725,-0.007,-0.121,0.0
390887.829,-1.4808041499999998,-9.54187045,1.6279039,-0.027,-0.06,-0.003
390887.869,-1.52003075,-9.502643849999998,1.55925735,-0.048,-0.038,0.004
390887.909,-1.4317708999999998,-9.5124505,1.569064,-0.034,-0.07,-0.009
390887.949,-1.3140911,-9.414383999999998,1.81423025,-0.074,0.125,-0.027
390887.989,-1.83384355,-9.38496405,1.34351105,-0.124,0.148,-0.047
390888.029,-1.83384355,-9.69877685,1.4709975,-0.095,-0.074,-0.02
390888.069,-1.6965504499999997,-9.71839015,1.55925735,-0.05,-0.044,0.043
390888.109,-1.57887065,-9.71839015,1.30428445,-0.015,-0.096,0.065
390888.148,-1.4023509499999998,-9.54187045,1.4219642499999998,-0.023,-0.132,0.046
390888.188,-1.2944778,-9.67916355,1.52003075,-0.005,-0.048,-0.008
390888.228,-1.2356379,-9.7674234,1.55925735,0.016,0.077,-0.037
390888.268,-1.2552512,-9.5124505,1.5102240999999998,0.015,0.202,-0.025
390888.308,-1.4219642499999998,-9.316317499999998,1.4808041499999998,-0.017,0.326,-0.051
390888.347,-1.6475172,-9.5320638,1.3827376499999997,-0.033,0.386,-0.072
390888.387,-1.83384355,-9.6889702,1.4121575999999998,-0.016,0.354,-0.052
390888.427,-1.8436502,-9.6497436,1.4023509499999998,0.009,0.333,-0.012
390888.467,-1.91229675,-9.6497436,1.46119085,0.024,0.255,-0.003
390888.507,-1.87307015,-9.44380395,1.4709975,0.034,0.154,-0.025
390888.547,-1.765197,-9.67916355,1.28467115,0.044,0.025,-0.011
390888.587,-1.6082906,-9.52225715,1.4219642499999998,0.04,0.016,-0.01
390888.627,-1.5494507,-9.3751574,1.36312435,0.012,0.092,-0.05
390888.667,-1.6279039,-9.60071035,1.2552512,-0.005,0.115,-0.079
390888.707,-1.46119085,-9.610517,1.6082906,-0.001,0.13,-0.078
390888.747,-1.6082906,-9.5516771,1.28467115,-0.014,0.186,-0.063
390888.787,-1.65732385,-9.5320638,1.10815145,-0.03,0.067,-0.055
390888.827,-1.52003075,-9.6889702,1.14737805,-0.027,0.038,-0.024
390888.867,-1.3827376499999997,-9.71839015,1.26505785,-0.054,0.135,-0.001
390888.907,-1.46119085,-9.3947707,1.28467115,-0.044,0.163,-0.018
390888.947,-1.44157755,-9.4928372,1.4023509499999998,-0.067,0.165,-0.048
390888.987,-1.59848395,-9.67916355,1.2160246,-0.064,0.146,-0.056
390889.027,-1.52003075,-9.7281968,1.2748645,-0.056,0.105,-0.025
390889.067,-1.5298374,-9.6693569,1.22583125,-0.016,0.095,0.006
390889.107,-1.36312435,-9.6301303,1.3827376499999997,0.004,0.17,0.004
390889.147,-1.5298374,-9.63993695,1.1866046499999998,-0.017,0.258,-0.004
390889.187,-1.61809725,-9.63993695,1.1179581,0.01,0.142,-0.04
390889.227,-1.4513842,-9.67916355,1.34351105,0.029,0.227,-0.022
390889.267,-1.67693715,-9.5320638,1.0395048999999998,-0.003,0.31,0.001
390889.307,-1.8632635,-9.414383999999998,0.91201845,-0.037,0.112,-0.051
390889.347,-1.7455836999999998,-9.4732239,1.1571847,-0.071,-0.059,-0.083
390889.388,-1.6475172,-9.56148375,1.1375714,-0.079,-0.115,-0.056
390889.427,-1.65732385,-9.65955025,1.0787315,-0.099,-0.176,-0.046
390889.467,-1.4709975,-9.6301303,1.20621795,-0.079,-0.242,-0.037
390889.507,-1.28467115,-9.590903699999998,1.372931,-0.069,-0.104,0.015
390889.547,-1.53964405,-9.7478101,0.8727918499999999,-0.044,-0.124,0.007
390889.587,-1.20621795,-9.8458766,1.01008495,0.009,-0.218,0.032
390889.627,-1.04931155,-9.67916355,1.20621795,-0.007,0.006,0.04
390889.667,-1.3827376499999997,-9.5516771,0.8727918499999999,-0.033,0.046,-0.04
390889.707,-1.4023509499999998,-9.6889702,1.08853815,-0.025,0.023,-0.077
390889.747,-1.53964405,-9.953749749999998,1.0002783,0.01,0.061,-0.027
390889.787,-1.55925735,-9.894909849999998,1.0002783,0.081,0.053,0.001
390889.827,-1.5102240999999998,-9.7478101,0.980665,0.086,0.07,0.004
390889.867,-1.5102240999999998,-9.75761675,0.97085835,0.101,0.008,-0.02
390889.907,-1.32389775,-9.54187045,1.16699135,0.108,0.015,-0.028
390889.947,-1.3533177,-9.502643849999998,1.16699135,0.102,0.069,-0.062
390889.987,-1.2748645,-9.590903699999998,1.20621795,0.09,0.066,-0.067
390890.027,-1.2748645,-9.56148375,1.3140911,0.059,0.157,-0.068
390890.067,-1.3925442999999995,-9.502643849999998,1.22583125,0.034,0.161,-0.07
390890.107,-1.372931,-9.6497436,1.3140911,0.037,0.132,-0.072
390890.147,-1.3337044,-9.65955025,1.4121575999999998,0.039,0.196,-0.053
390890.187,-1.4513842,-9.65955025,1.3827376499999997,0.03,0.261,-0.038
390890.227,-1.569064,-9.4928372,1.36312435,0.038,0.232,-0.036
390890.267,-1.569064,-9.58109705,1.3827376499999997,0.042,0.16,-0.014
390890.307,-1.569064,-9.6497436,1.34351105,0.039,0.068,0.019
390890.347,-1.63771055,-9.44380395,1.1375714,0.014,-0.045,-0.029
390890.387,-1.34351105,-9.30651085,1.1179581,-0.003,-0.236,-0.074
390890.427,-1.0787315,-9.5124505,1.14737805,-0.041,-0.202,-0.05
390890.466,-1.0395048999999998,-9.58109705,1.0395048999999998,-0.071,-0.184,-0.016
390890.506,-0.8531785499999999,-9.71839015,1.2160246,-0.088,-0.097,0.008
390890.546,-0.83356525,-9.77723005,1.26505785,-0.071,0.025,0.027
390890.586,-0.9022118,-9.894909849999998,1.2748645,-0.071,0.161,0.01
390890.626,-1.20621795,-9.5320638,1.0198915999999998,-0.069,0.119,-0.035
390890.666,-1.2160246,-9.67916355,1.08853815,-0.068,0.047,-0.074
390890.706,-1.1375714,-9.7674234,1.06892485,-0.034,0.087,-0.068
390890.746,-1.0296982499999998,-9.67916355,1.28467115,-0.035,0.265,-0.045
390890.786,-1.28467115,-9.6889702,1.0395048999999998,-0.064,0.336,-0.061
390890.826,-1.04931155,-9.63993695,1.20621795,-0.033,0.324,-0.081
390890.866,-1.16699135,-9.42419065,1.04931155,-0.047,0.415,-0.103
390890.906,-1.1866046499999998,-9.54187045,0.77472535,-0.05,0.296,-0.13
390890.946,-1.1571847,-9.7085835,0.95124505,-0.082,0.334,-0.132
390890.986,-1.32389775,-9.77723005,0.8237586,-0.125,0.355,-0.094
390891.026,-1.5494507,-9.8458766,0.77472535,-0.105,0.229,-0.052
390891.066,-1.4808041499999998,-9.9047165,0.8433718999999998,-0.064,0.128,-0.045
390891.106,-1.22583125,-9.9047165,0.8825985,-0.012,0.038,0.023
390891.146,-1.1179581,-9.6693569,0.8924051499999999,-0.003,-0.02,0.052
390891.186,-1.0395048999999998,-9.8851032,0.7551120499999999,0.022,-0.124,0.005
390891.226,-0.7649187,-9.7478101,0.8924051499999999,0.036,-0.067,0.007
390891.266,-0.8433718999999998,-9.6497436,0.81395195,0.01,-0.014,0.01
390891.306,-1.0002783,-9.6301303,0.77472535,0.001,0.019,-0.029
390891.346,-1.0983448,-9.7478101,0.7943386499999999,-0.014,0.022,-0.026
390891.386,-1.2552512,-9.7870367,0.7256921,-0.006,-0.081,0.006
390891.426,-1.1179581,-9.7674234,0.8727918499999999,0.019,-0.115,0.019
390891.466,-1.0787315,-9.77723005,0.8531785499999999,0.024,-0.089,0.043
390891.506,-1.12776475,-9.67916355,0.7551120499999999,0.019,-0.1,0.032
390891.545,-1.04931155,-9.590903699999998,0.73549875,0.028,-0.174,0.022
390891.585,-0.8629851999999999,-9.7281968,0.9610517,0.013,-0.084,0.041
390891.625,-0.980665,-9.7674234,0.8727918499999999,0.008,0.055,0.019
390891.665,-1.0787315,-9.5712904,0.9022118,0.001,0.067,-0.009
390891.705,-1.16699135,-9.60071035,0.8825985,-0.009,0.079,-0.011
390891.745,-1.28467115,-9.7870367,0.8237586,-0.016,0.09,-0.005
390891.785,-1.4121575999999998,-9.7478101,0.8629851999999999,-0.019,0.031,-0.034
390891.825,-1.22583125,-9.6301303,1.0395048999999998,0.006,0.012,-0.015
390891.865,-1.32389775,-9.7281968,0.95124505,0.014,0.077,0.023
390891.905,-1.36312435,-9.6301303,0.8825985,0.011,0.023,0.033
390891.945,-1.4121575999999998,-9.73800345,0.91201845,-0.01,0.015,0.024
390891.985,-1.4513842,-9.71839015,0.7649187,0.015,-0.143,0.007
390892.025,-1.0787315,-9.6889702,1.08853815,0.021,-0.141,0.051
390892.065,-1.1866046499999998,-9.7085835,0.7943386499999999,0.014,-0.096,0.063
390892.105,-1.0002783,-9.6889702,0.97085835,0.022,-0.12,0.02
390892.145,-1.08853815,-9.5712904,0.95124505,-0.029,0.036,0.001
390892.185,-1.4219642499999998,-9.75761675,0.48052585,-0.011,-0.207,-0.042
390892.225,-0.7453053999999999,-9.80665,1.3140911,0.016,-0.202,-0.025
390892.265,-1.1571847,-9.71839015,0.77472535,-0.03,0.079,-0.013
390892.305,-1.32389775,-9.4536106,0.5982056499999999,-0.023,-0.266,-0.073
390892.345,-0.91201845,-9.71839015,1.0395048999999998,-0.035,-0.247,-0.057
390892.385,-0.95124505,-9.7085835,0.7256921,-0.015,-0.193,-0.035
390892.425,-0.7158854499999999,-9.73800345,1.0198915999999998,-0.017,-0.124,-0.002
390892.465,-0.9218251,-9.7085835,0.83356525,-0.035,0.067,0.021
390892.505,-1.0198915999999998,-9.63993695,0.8237586,-0.037,0.031,-0.015
390892.545,-1.0002783,-9.6693569,0.8727918499999999,-0.043,0.043,-0.021
390892.585,-1.10815145,-9.77723005,0.784532,-0.044,0.025,-0.031
390892.624,-1.0787315,-9.7085835,0.8237586,-0.04,-0.03,-0.037
390892.664,-0.980665,-9.71839015,0.9610517,-0.034,-0.016,-0.033
390892.704,-1.0198915999999998,-9.6889702,0.9022118,-0.036,0.051,-0.03
390892.744,-1.06892485,-9.6889702,0.91201845,-0.037,0.063,-0.031
390892.784,-1.1866046499999998,-9.7870367,0.8433718999999998,-0.039,0.072,-0.03
390892.824,-1.1571847,-9.71839015,0.8727918499999999,-0.019,0.015,-0.006
390892.864,-1.12776475,-9.69877685,0.9218251,-0.013,0.042,0.009
390892.904,-1.1767979999999998,-9.7478101,0.77472535,-0.009,0.015,-0.007
390892.944,-1.12776475,-9.7870367,0.91201845,-0.008,-0.001,-0.015
390892.984,-1.0395048999999998,-9.83606995,0.95124505,0.015,0.008,-0.003
390893.024,-1.04931155,-9.610517,1.01008495,0.011,0.138,0.005
390893.064,-1.4023509499999998,-9.4536106,0.7453053999999999,-0.017,0.108,-0.018
390893.104,-1.4121575999999998,-9.7281968,0.8237586,-0.01,-0.043,0.007
390893.144,-1.3337044,-9.855683249999998,0.8433718999999998,0.011,-0.111,0.043
390893.184,-1.12776475,-9.7674234,0.97085835,0.023,-0.139,0.032
390893.224,-1.0395048999999998,-9.63993695,0.9414384,0.022,-0.134,0.026
390893.264,-1.01008495,-9.610517,0.980665,0.0,-0.055,0.034
390893.304,-1.2552512,-9.7478101,0.63743225,-0.008,-0.099,0.002
390893.344,-0.95124505,-9.9243298,0.7649187,0.02,-0.234,-0.001
390893.384,-0.6962721499999999,-9.7085835,1.0591182,0.022,-0.069,0.024
390893.424,-0.8924051499999999,-9.52225715,0.73549875,0.01,-0.01,0.008
390893.464,-0.8041453,-9.610517,1.08853815,-0.03,0.06,-0.025
390893.504,-1.20621795,-9.56148375,0.73549875,-0.059,0.099,-0.038
390893.544,-1.1179581,-9.8458766,1.01008495,-0.024,-0.018,-0.011
390893.584,-1.24544455,-9.875296549999998,0.8727918499999999,-0.017,0.135,0.021
390893.624,-1.4317708999999998,-9.4732239,0.67665885,-0.017,-0.076,0.009
390893.663,-1.1866046499999998,-9.58109705,0.99047165,-0.045,-0.135,0.021
390893.703,-1.2748645,-9.7674234,0.7551120499999999,-0.025,-0.177,0.04
390893.743,-1.01008495,-9.855683249999998,0.9414384,-0.027,-0.148,0.066
390893.783,-1.14737805,-9.6693569,0.48052585,-0.015,-0.266,0.061
390893.823,-0.63743225,-9.7478101,0.9610517,-0.006,-0.28,0.044
390893.863,-0.7060787999999999,-9.81645665,0.73549875,-0.021,-0.044,0.028
390893.903,-0.7551120499999999,-9.73800345,0.7649187,-0.022,-0.034,-0.022
390893.943,-0.7551120499999999,-9.75761675,0.8237586,-0.013,0.08,-0.032
390893.983,-0.8629851999999999,-9.77723005,0.73549875,0.002,0.133,-0.028
390894.023,-1.0198915999999998,-9.63993695,0.784532,-0.013,0.186,-0.048
390894.063,-1.14737805,-9.77723005,0.6962721499999999,-0.014,0.224,-0.051
390894.103,-1.3140911,-9.7478101,0.6472389,0.004,0.135,-0.054
390894.142,-1.06892485,-9.91452315,0.8727918499999999,0.017,0.077,-0.014
390894.182,-1.0983448,-9.7281968,0.93163175,0.025,0.173,-0.015
390894.222,-1.1571847,-9.67916355,0.8727918499999999,0.046,0.188,-0.068
390894.262,-1.1964112999999998,-9.65955025,0.8629851999999999,0.029,0.223,-0.021
390894.302,-1.372931,-9.60071035,0.784532,0.021,0.222,0.01
390894.342,-1.4808041499999998,-9.6889702,0.83356525,0.011,0.166,-0.023
390894.382,-1.4023509499999998,-9.7478101,0.8727918499999999,0.021,0.068,-0.015
390894.422,-1.3337044,-9.62032365,0.9610517,0.029,0.002,0.022
390894.462,-1.24544455,-9.67916355,0.8727918499999999,0.032,-0.03,0.006
390894.502,-1.1179581,-9.69877685,0.9610517,0.025,-0.023,0.029
390894.542,-1.12776475,-9.6301303,1.0395048999999998,0.017,0.004,0.007
390894.582,-1.2160246,-9.75761675,1.01008495,0.015,0.022,0.002
390894.622,-1.30428445,-9.63993695,0.8727918499999999,0.018,-0.048,0.019
390894.662,-1.16699135,-9.610517,0.91201845,0.012,-0.108,0.013
390894.701,-1.0591182,-9.6497436,0.99047165,-0.005,-0.102,0.006
390894.741,-1.06892485,-9.80665,1.0002783,-0.009,-0.059,0.001
390894.781,-1.0395048999999998,-9.7085835,1.0002783,0.002,-0.061,-0.006
390894.821,-1.04931155,-9.610517,1.0198915999999998,-0.01,-0.012,0.006
390894.861,-1.1571847,-9.7478101,0.8727918499999999,-0.006,-0.01,0.005
390894.901,-1.06892485,-9.6497436,1.0787315,-0.012,0.009,0.008
390894.941,-1.22583125,-9.73800345,0.97085835,-0.016,0.039,0.002
390894.981,-1.24544455,-9.6693569,0.99047165,-0.004,-0.015,-0.01
390895.021,-1.22583125,-9.73800345,0.97085835,0.002,-0.016,-0.007
390895.061,-1.1964112999999998,-9.7478101,0.980665,0.007,-0.015,-0.004
390895.101,-1.14737805,-9.6497436,1.01008495,0.012,-0.011,-0.003
390895.141,-1.10815145,-9.6693569,0.99047165,0.014,0.006,0.007
390895.181,-1.12776475,-9.610517,1.0198915999999998,0.001,0.059,-0.004
390895.221,-1.28467115,-9.69877685,0.97085835,-0.016,0.1,-0.01
390895.261,-1.372931,-9.69877685,0.9610517,-0.007,0.059,0.015
390895.301,-1.30428445,-9.54187045,0.9610517,-0.001,0.023,0.041
390895.341,-1.3533177,-9.8458766,0.8727918499999999,-0.011,-0.031,0.009
390895.382,-1.1571847,-9.7674234,0.93163175,0.016,-0.119,0.005
390895.422,-1.0198915999999998,-9.610517,1.01008495,0.011,-0.054,0.027
390895.462,-1.0787315,-9.56148375,0.9218251,-0.009,-0.029,-0.008
390895.502,-1.1571847,-9.73800345,0.95124505,-0.021,0.024,0.004
390895.542,-1.2748645,-9.7478101,0.8924051499999999,-0.008,-0.008,0.027
390895.582,-1.1866046499999998,-9.65955025,0.9414384,-0.001,-0.073,0.036
390895.622,-1.0591182,-9.610517,1.06892485,-0.001,-0.058,0.024
390895.662,-1.12776475,-9.65955025,1.06892485,-0.021,0.07,0.019
390895.702,-1.3925442999999995,-9.71839015,0.8531785499999999,-0.023,0.038,0.007
390895.742,-1.3337044,-9.77723005,0.95124505,-0.011,-0.088,-0.011
390895.782,-1.1767979999999998,-9.75761675,1.1179581,-0.001,-0.119,-0.014
390895.821,-1.06892485,-9.6889702,1.1571847,0.02,-0.058,-0.011
390895.861,-1.1375714,-9.5712904,1.0787315,0.007,0.048,0.013
390895.901,-1.372931,-9.6301303,0.9022118,-0.016,0.064,-0.001
390895.941,-1.4023509499999998,-9.6693569,1.01008495,-0.027,-0.014,-0.023
390895.981,-1.32389775,-9.6693569,1.1767979999999998,-0.017,-0.044,-0.021
390896.021,-1.28467115,-9.62032365,1.1767979999999998,-0.002,0.01,-0.001
390896.061,-1.4023509499999998,-9.71839015,1.0395048999999998,-0.005,0.04,0.011
390896.101,-1.4317708999999998,-9.6693569,1.12776475,0.0,0.05,0.02
390896.141,-1.4709975,-9.65955025,1.0002783,0.005,0.033,0.035
390896.181,-1.4023509499999998,-9.6693569,0.97085835,-0.002,-0.067,0.005
390896.221,-1.1964112999999998,-9.6497436,1.04931155,-0.002,-0.075,-0.007
390896.261,-1.1571847,-9.63993695,1.0296982499999998,-0.011,0.0,-0.007
390896.301,-1.2160246,-9.65955025,0.97085835,-0.021,0.055,-0.012
390896.341,-1.32389775,-9.6889702,0.8433718999999998,-0.019,0.038,0.007
390896.381,-1.24544455,-9.65955025,0.980665,-0.012,-0.024,-0.015
390896.421,-1.20621795,-9.69877685,1.01008495,-0.014,0.041,-0.012
390896.461,-1.3140911,-9.590903699999998,0.9218251,-0.014,0.047,-0.0
390896.501,-1.4023509499999998,-9.7281968,0.91201845,-0.022,0.053,-0.013
390896.541,-1.46119085,-9.7085835,0.8629851999999999,-0.016,-0.01,0.0
390896.581,-1.24544455,-9.54187045,1.2356379,-0.008,-0.031,0.019
390896.621,-1.61809725,-9.67916355,0.8237586,-0.027,0.103,0.005
390896.661,-1.57887065,-9.75761675,0.8629851999999999,-0.01,-0.092,0.019
390896.701,-1.34351105,-9.6497436,0.91201845,-0.017,-0.158,0.06
390896.741,-1.20621795,-9.40457735,1.0198915999999998,-0.028,-0.221,0.003
390896.781,-1.0296982499999998,-9.80665,1.0983448,-0.023,-0.068,-0.01
390896.821,-1.28467115,-9.8654899,0.81395195,-0.032,0.043,0.035
390896.86,-1.3337044,-9.44380395,0.9218251,-0.043,-0.103,0.021
390896.9,-1.2552512,-9.5516771,1.0591182,-0.033,-0.075,-0.003
390896.94,-1.4317708999999998,-9.71839015,0.8531785499999999,-0.051,0.013,0.01
390896.98,-1.4808041499999998,-9.79684335,0.7943386499999999,-0.046,-0.058,0.058
390897.02,-1.26505785,-9.83606995,0.980665,-0.023,-0.081,0.083
390897.06,-1.1964112999999998,-9.93413645,0.6962721499999999,0.028,-0.109,0.053
390897.1,-0.8433718999999998,-9.7281968,0.81395195,0.063,-0.171,0.025
390897.14,-0.7158854499999999,-9.6497436,0.91201845,0.031,0.075,-0.031
390897.18,-1.0198915999999998,-9.502643849999998,0.83356525,0.002,0.247,-0.08
390897.22,-1.2944778,-9.5320638,1.06892485,-0.034,0.421,-0.073
390897.26,-1.89268345,-9.4732239,0.8825985,-0.04,0.448,-0.084
390897.3,-2.22610955,-9.65955025,0.784532,-0.042,0.234,-0.092
390897.34,-2.2163029,-9.73800345,0.73549875,-0.011,-0.071,-0.063
390897.38,-1.8828768,-9.71839015,0.8041453,0.004,-0.2,0.036
390897.42,-1.6965504499999997,-9.7085835,0.5883989999999999,-0.003,-0.324,0.078
390897.46,-1.2552512,-9.6693569,0.8531785499999999,-0.017,-0.359,0.044
390897.5,-1.0591182,-9.6889702,0.8041453,-0.014,-0.33,0.03
390897.54,-0.7551120499999999,-9.5712904,1.1767979999999998,-0.021,-0.179,0.015
390897.58,-1.0296982499999998,-9.65955025,0.9610517,-0.046,0.078,-0.019
390897.62,-1.372931,-9.75761675,0.8041453,-0.039,0.125,-0.001
390897.66,-1.569064,-9.79684335,0.81395195,-0.027,0.07,-0.001
390897.7,-1.4906107999999998,-9.69877685,0.8531785499999999,0.001,-0.041,-0.019
390897.74,-1.32389775,-9.6497436,0.8629851999999999,0.011,-0.099,-0.015
390897.78,-1.1964112999999998,-9.6693569,0.8629851999999999,0.002,-0.055,-0.025
390897.82,-1.2356379,-9.7281968,0.9414384,-0.016,0.058,-0.04
390897.86,-1.3827376499999997,-9.71839015,0.8727918499999999,0.002,0.031,-0.032
390897.899,-1.4121575999999998,-9.73800345,0.8041453,0.01,-0.005,-0.032
390897.939,-1.3337044,-9.62032365,0.7649187,0.017,-0.106,-0.044
390897.979,-1.08853815,-9.5516771,0.97085835,0.007,-0.052,-0.029
390898.019,-1.1767979999999998,-9.79684335,0.93163175,-0.006,0.095,-0.033
390898.059,-1.4317708999999998,-9.590903699999998,0.91201845,-0.018,0.12,-0.037
390898.099,-1.52003075,-9.6693569,0.8825985,0.002,0.017,-0.028
390898.139,-1.4219642499999998,-9.6497436,0.91201845,0.013,-0.032,0.011
390898.179,-1.34351105,-9.65955025,0.8629851999999999,0.009,-0.057,0.02
390898.219,-1.2552512,-9.7870367,0.9414384,-0.0,-0.033,0.002
390898.259,-1.20621795,-9.6497436,1.0198915999999998,0.007,-0.043,-0.006
390898.299,-1.2552512,-9.65955025,0.9022118,0.014,-0.028,-0.009
390898.339,-1.20621795,-9.7478101,0.9218251,0.006,-0.025,-0.007
390898.379,-1.20621795,-9.63993695,0.97085835,-0.006,0.047,0.013
390898.419,-1.4023509499999998,-9.590903699999998,0.9218251,-0.016,-0.003,-0.019
390898.459,-1.32389775,-9.81645665,0.8924051499999999,0.011,-0.097,-0.025
390898.499,-1.0787315,-9.6497436,1.0395048999999998,0.004,-0.083,0.016
390898.539,-1.16699135,-9.62032365,0.8433718999999998,-0.006,-0.044,-0.018
390898.579,-1.0296982499999998,-9.6693569,1.0395048999999998,-0.015,0.003,-0.028
390898.619,-1.24544455,-9.7478101,0.9022118,-0.02,0.074,-0.019
390898.659,-1.2748645,-9.75761675,0.9022118,-0.004,0.002,-0.012
390898.699,-1.1375714,-9.590903699999998,1.0395048999999998,0.002,0.015,0.002
390898.739,-1.26505785,-9.6301303,0.8727918499999999,-0.009,0.028,-0.012
390898.779,-1.22583125,-9.77723005,1.0296982499999998,-0.012,0.042,-0.004
390898.819,-1.372931,-9.69877685,1.01008495,-0.008,0.085,-0.002
390898.859,-1.4906107999999998,-9.6497436,0.8531785499999999,0.004,-0.011,-0.002
390898.899,-1.372931,-9.6889702,0.8237586,0.007,-0.121,0.021
390898.939,-1.08853815,-9.7281968,0.97085835,0.014,-0.119,0.027
390898.978,-1.0395048999999998,-9.60071035,1.0002783,-0.003,-0.02,0.016
390899.018,-1.1767979999999998,-9.67916355,0.8825985,-0.016,0.011,-0.009
390899.058,-1.28467115,-9.67916355,0.93163175,-0.021,0.014,-0.005
390899.098,-1.3827376499999997,-9.6301303,0.9022118,-0.022,-0.022,-0.017
390899.138,-1.34351105,-9.73800345,0.9218251,-0.019,-0.065,0.003
390899.178,-1.28467115,-9.69877685,0.9218251,-0.014,-0.071,0.016
390899.218,-1.1767979999999998,-9.6693569,0.95124505,-0.013,-0.077,0.002
390899.258,-1.1571847,-9.65955025,0.93163175,-0.012,-0.065,-0.005
390899.298,-1.1375714,-9.71839015,1.0002783,-0.013,-0.015,-0.006
390899.338,-1.22583125,-9.7870367,0.97085835,-0.007,0.045,-0.009
390899.378,-1.3533177,-9.71839015,0.91201845,0.003,0.014,-0.019
390899.418,-1.26505785,-9.63993695,0.9414384,0.017,-0.027,-0.009
390899.458,-1.2160246,-9.63993695,0.9610517,0.01,0.013,-0.002
390899.498,-1.2552512,-9.73800345,0.9610517,0.009,0.048,-0.006
390899.538,-1.28467115,-9.67916355,1.0296982499999998,0.014,0.064,0.016
390899.578,-1.3827376499999997,-9.67916355,0.8433718999999998,0.021,0.041,0.014
390899.618,-1.3140911,-9.590903699999998,0.9218251,0.009,-0.024,0.009
390899.658,-1.2356379,-9.6497436,0.980665,-0.002,-0.01,0.004
390899.698,-1.2356379,-9.7085835,1.0395048999999998,0.001,0.027,0.009
390899.738,-1.34351105,-9.6693569,0.93163175,-0.002,0.043,0.015
390899.778,-1.36312435,-9.6301303,0.9218251,-0.002,-0.014,0.009
390899.818,-1.26505785,-9.6497436,1.0002783,-0.006,-0.019,0.008
390899.858,-1.2748645,-9.6889702,0.99047165,-0.007,0.002,0.006
390899.898,-1.28467115,-9.6301303,1.0198915999999998,-0.01,0.012,0.008
390899.938,-1.3827376499999997,-9.6889702,0.93163175,-0.007,0.008,0.008
390899.978,-1.372931,-9.6889702,0.99047165,-0.008,-0.021,0.002
390900.017,-1.32389775,-9.63993695,1.0591182,-0.004,-0.023,0.003
390900.057,-1.34351105,-9.6693569,1.0002783,-0.001,-0.002,0.006
390900.097,-1.34351105,-9.69877685,0.99047165,-0.005,0.001,0.015
390900.136,-1.3533177,-9.6497436,1.01008495,-0.001,-0.011,0.01
390900.176,-1.3337044,-9.67916355,0.99047165,0.001,-0.01,-0.005
390900.216,-1.3337044,-9.62032365,0.980665,-0.0,-0.027,0.0
390900.256,-1.30428445,-9.6693569,1.0002783,-0.007,0.001,0.0
390900.296,-1.372931,-9.60071035,1.0395048999999998,-0.009,0.02,-0.013
390900.336,-1.4121575999999998,-9.77723005,0.9610517,-0.006,0.018,0.002
390900.376,-1.4121575999999998,-9.56148375,0.99047165,-0.004,-0.004,0.002
390900.416,-1.4219642499999998,-9.6301303,0.91201845,-0.008,-0.023,-0.017
390900.456,-1.3827376499999997,-9.65955025,0.980665,-0.021,-0.019,-0.009
390900.496,-1.4023509499999998,-9.6693569,0.99047165,-0.019,-0.018,-0.013
390900.536,-1.3925442999999995,-9.63993695,0.980665,-0.016,-0.015,-0.014
390900.576,-1.4121575999999998,-9.6301303,0.91201845,-0.022,-0.016,-0.005
390900.616,-1.4219642499999998,-9.73800345,0.9218251,-0.023,-0.025,-0.013
390900.656,-1.3533177,-9.6889702,0.99047165,-0.019,-0.021,-0.01
390900.696,-1.3533177,-9.610517,0.9414384,-0.011,-0.026,-0.007
390900.736,-1.3533177,-9.65955025,0.8727918499999999,-0.019,-0.03,-0.014
390900.776,-1.3140911,-9.71839015,0.8924051499999999,-0.021,-0.028,-0.007
390900.816,-1.28467115,-9.6693569,0.95124505,-0.016,-0.036,-0.009
390900.856,-1.24544455,-9.6889702,0.91201845,-0.01,-0.029,-0.011
390900.896,-1.2552512,-9.62032365,0.9022118,-0.016,-0.018,-0.008
390900.936,-1.2944778,-9.67916355,0.9022118,-0.026,0.012,-0.021
390900.976,-1.36312435,-9.7281968,0.9218251,-0.021,-0.005,-0.021
390901.016,-1.3337044,-9.6889702,0.95124505,-0.011,-0.016,-0.006
390901.056,-1.34351105,-9.65955025,0.91201845,-0.007,-0.025,-0.01
390901.095,-1.3140911,-9.6889702,0.93163175,-0.006,-0.022,-0.004
390901.135,-1.30428445,-9.69877685,0.9218251,-0.006,-0.022,0.009
390901.175,-1.26505785,-9.6889702,0.93163175,0.001,-0.04,0.01
390901.215,-1.2160246,-9.6301303,0.9414384,-0.001,-0.018,0.011
390901.255,-1.2748645,-9.73800345,0.9218251,-0.008,-0.003,-0.007
390901.295,-1.30428445,-9.7281968,1.0198915999999998,-0.003,0.017,-0.011
390901.335,-1.46119085,-9.63993695,0.91201845,0.006,-0.026,0.003
390901.376,-1.4219642499999998,-9.65955025,0.8531785499999999,0.008,-0.118,0.011
390901.416,-1.2552512,-9.6889702,1.01008495,-0.001,-0.133,-0.01
390901.456,-1.1375714,-9.69877685,1.14737805,0.003,-0.057,0.001
390901.496,-1.372931,-9.590903699999998,0.9414384,-0.008,-0.04,0.013
390901.536,-1.34351105,-9.6889702,0.95124505,0.008,-0.131,0.009
390901.576,-1.2552512,-9.7674234,1.0296982499999998,-0.003,-0.091,-0.006
390901.616,-1.1866046499999998,-9.6497436,1.01008495,0.001,-0.091,-0.022
390901.656,-1.1964112999999998,-9.58109705,1.0983448,-0.002,-0.031,0.005
390901.696,-1.32389775,-9.6497436,0.99047165,-0.01,0.008,-0.002
390901.736,-1.46119085,-9.73800345,0.9610517,-0.018,-0.01,-0.009
390901.776,-1.4513842,-9.5320638,0.99047165,-0.015,-0.067,0.014
390901.816,-1.4513842,-9.502643849999998,0.980665,-0.04,-0.079,0.001
390901.856,-1.4906107999999998,-9.65955025,0.9218251,-0.063,-0.111,-0.01
390901.896,-1.36312435,-9.7281968,0.99047165,-0.049,-0.177,0.02
390901.936,-1.26505785,-9.71839015,1.0198915999999998,-0.046,-0.116,0.013
390901.976,-1.2748645,-9.60071035,0.9218251,-0.052,-0.095,0.0
390902.016,-1.32389775,-9.6301303,0.99047165,-0.065,-0.054,-0.018
390902.056,-1.3925442999999995,-9.7870367,0.8237586,-0.036,-0.108,0.012
390902.096,-1.12776475,-9.75761675,1.01008495,-0.012,-0.061,0.057
390902.136,-1.2356379,-9.63993695,0.8433718999999998,-0.027,0.027,0.018
390902.175,-1.2552512,-9.6889702,0.9218251,-0.035,-0.009,-0.022
390902.215,-1.20621795,-9.77723005,0.9414384,-0.004,0.027,0.007
390902.255,-1.1964112999999998,-9.71839015,0.8825985,-0.003,0.109,0.007
390902.295,-1.3337044,-9.65955025,0.7551120499999999,-0.004,0.08,-0.007
390902.335,-1.24544455,-9.65955025,0.980665,-0.002,0.104,-0.011
390902.375,-1.36312435,-9.7674234,0.8727918499999999,0.009,0.14,-0.01
390902.415,-1.36312435,-9.71839015,0.97085835,0.021,0.156,0.014
390902.455,-1.53964405,-9.62032365,0.83356525,0.023,0.096,-0.001
390902.495,-1.5102240999999998,-9.6693569,1.0296982499999998,0.014,0.084,-0.021
390902.535,-1.6867437999999997,-9.7478101,0.7649187,0.021,-0.039,-0.039
390902.575,-1.4709975,-9.73800345,0.9022118,0.032,-0.164,-0.024
390902.615,-1.2748645,-9.60071035,0.95124505,0.029,-0.171,-0.038
390902.655,-1.1375714,-9.62032365,1.0002783,0.02,-0.098,-0.033
390902.695,-1.22583125,-9.65955025,0.9610517,0.003,-0.04,-0.011
390902.735,-1.3337044,-9.610517,0.97085835,0.004,-0.011,-0.01
390902.775,-1.3827376499999997,-9.6889702,0.980665,0.014,-0.054,-0.007
390902.815,-1.30428445,-9.67916355,1.0983448,0.015,-0.044,0.037
390902.855,-1.3827376499999997,-9.60071035,0.9610517,0.017,-0.043,0.049
390902.895,-1.34351105,-9.67916355,0.9414384,0.014,-0.095,0.044
390902.935,-1.20621795,-9.73800345,1.0296982499999998,0.018,-0.081,0.05
390902.975,-1.16699135,-9.69877685,1.04931155,0.018,0.02,0.043
390903.015,-1.2160246,-9.58109705,0.9218251,0.013,0.026,0.042
390903.055,-1.1866046499999998,-9.60071035,0.980665,0.002,0.043,0.053
390903.095,-1.26505785,-9.6301303,0.9218251,-0.002,0.084,0.021
390903.135,-1.2748645,-9.75761675,0.95124505,-0.007,0.126,0.04
390903.175,-1.3533177,-9.60071035,0.8825985,-0.005,0.14,0.046
390903.214,-1.3925442999999995,-9.6301303,0.8629851999999999,-0.025,0.165,0.025
390903.254,-1.52003075,-9.5516771,0.8531785499999999,-0.052,0.078,-0.006
390903.294,-1.4709975,-9.63993695,1.1179581,-0.036,0.117,-0.033
390903.334,-1.67693715,-9.67916355,0.980665,-0.04,0.17,0.01
390903.374,-1.89268345,-9.5320638,0.980665,-0.051,0.093,0.031
390903.414,-2.06920315,-9.5320638,1.0002783,-0.06,-0.02,0.0
390903.454,-2.0986231,-9.77723005,0.8924051499999999,-0.033,-0.25,0.014
390903.494,-1.765197,-9.81645665,0.9610517,0.009,-0.395,0.047
390903.534,-1.4709975,-9.6889702,0.7943386499999999,0.006,-0.443,0.038
390903.574,-1.1571847,-9.54187045,0.8924051499999999,-0.01,-0.49,-0.003
390903.614,-0.77472535,-9.6301303,1.26505785,-0.022,-0.259,-0.036
390903.654,-1.0787315,-9.63993695,0.95124505,-0.048,-0.014,-0.027
390903.694,-1.3533177,-9.5712904,0.9022118,-0.056,0.001,-0.067
390903.734,-1.46119085,-9.65955025,0.8531785499999999,-0.054,0.014,-0.071
390903.774,-1.4219642499999998,-9.73800345,0.93163175,-0.045,-0.024,-0.042
390903.814,-1.4023509499999998,-9.63993695,0.95124505,-0.04,0.046,-0.034
390903.854,-1.44157755,-9.67916355,0.81395195,-0.032,0.056,-0.047
390903.894,-1.372931,-9.6693569,0.9218251,-0.039,0.078,-0.047
390903.934,-1.4121575999999998,-9.58109705,0.9414384,-0.027,0.146,-0.036
390903.974,-1.5494507,-9.67916355,0.8237586,-0.033,0.205,-0.015
390904.014,-1.7259703999999998,-9.5516771,0.7256921,-0.038,0.104,0.004
390904.054,-1.6475172,-9.69877685,0.8727918499999999,-0.031,0.076,0.003
390904.094,-1.67693715,-9.73800345,0.7551120499999999,-0.032,0.001,-0.001
390904.134,-1.5102240999999998,-9.610517,0.8629851999999999,-0.022,-0.138,-0.006
390904.174,-1.32389775,-9.7085835,0.8433718999999998,-0.002,-0.085,-0.011
390904.214,-1.2748645,-9.7085835,0.7649187,-0.011,-0.033,0.003
390904.253,-1.3140911,-9.65955025,0.9414384,-0.038,0.055,-0.011
390904.293,-1.6082906,-9.6889702,0.7453053999999999,-0.03,0.03,-0.04
390904.333,-1.55925735,-9.60071035,0.8237586,-0.019,-0.111,-0.025
390904.372,-1.5886772999999998,-9.6301303,0.73549875,-0.031,-0.161,-0.011
390904.412,-1.4513842,-9.8262633,0.7943386499999999,-0.015,-0.259,-0.018
390904.452,-1.1866046499999998,-9.77723005,0.8041453,0.011,-0.26,-0.003
390904.492,-1.0983448,-9.6889702,0.7453053999999999,0.004,-0.199,-0.001
390904.532,-1.0395048999999998,-9.52225715,0.8433718999999998,-0.016,-0.149,-0.042
390904.572,-1.1179581,-9.6889702,0.9610517,-0.03,-0.01,-0.043
390904.612,-1.4023509499999998,-9.69877685,0.77472535,-0.025,0.026,-0.01
390904.652,-1.4906107999999998,-9.6301303,0.9218251,-0.027,0.014,0.006
390904.692,-1.6867437999999997,-9.610517,0.7158854499999999,-0.031,-0.026,0.01
390904.732,-1.6082906,-9.6497436,0.7256921,-0.026,-0.215,0.013
390904.772,-1.36312435,-9.7478101,0.73549875,-0.022,-0.261,0.03
390904.812,-1.1375714,-9.62032365,0.8531785499999999,-0.025,-0.26,0.03
390904.852,-1.1179581,-9.63993695,0.8237586,-0.048,-0.126,0.004
390904.892,-1.20621795,-9.590903699999998,0.8924051499999999,-0.062,-0.086,0.001
390904.932,-1.44157755,-9.65955025,0.8629851999999999,-0.076,-0.016,0.023
390904.972,-1.6671305,-9.8851032,0.50013915,-0.044,-0.142,0.031
390905.012,-1.2552512,-9.79684335,0.6080123,-0.014,-0.3,0.076
390905.052,-1.0395048999999998,-9.5516771,0.65704555,-0.04,-0.241,0.089
390905.092,-0.8825985,-9.77723005,0.6962721499999999,-0.032,-0.224,0.009
390905.132,-0.6668522,-9.7870367,1.0198915999999998,-0.035,0.046,-0.011
390905.172,-1.1571847,-9.6497436,0.67665885,-0.059,0.192,-0.014
390905.212,-1.30428445,-9.6497436,0.8924051499999999,-0.026,0.243,-0.023
390905.252,-1.7063570999999995,-9.6693569,0.6668522,-0.056,0.34,-0.003
390905.292,-1.99074995,-9.8458766,0.4707192,-0.02,0.022,0.006
390905.331,-1.59848395,-9.8654899,0.6962721499999999,0.036,-0.093,0.044
390905.372,-1.32389775,-9.7870367,0.5687857,0.061,-0.198,0.054
390905.412,-0.97085835,-9.6301303,0.7551120499999999,0.046,-0.124,0.038
390905.452,-0.99047165,-9.65955025,0.6472389,0.046,0.018,-0.023
390905.492,-0.980665,-9.7478101,0.7158854499999999,0.028,0.187,-0.024
390905.532,-1.32389775,-9.6889702,0.65704555,-0.001,0.303,-0.009
390905.572,-1.57887065,-9.6889702,0.5883989999999999,0.018,0.19,-0.047
390905.612,-1.46119085,-9.7870367,0.6472389,0.034,0.088,-0.024
390905.652,-1.36312435,-9.6693569,0.63743225,0.044,0.032,-0.031
390905.692,-1.20621795,-9.62032365,0.7551120499999999,0.021,0.097,-0.051
390905.732,-1.1866046499999998,-9.6497436,0.81395195,0.021,0.166,-0.03
390905.772,-1.34351105,-9.71839015,0.9022118,0.011,0.261,-0.022
390905.812,-1.5886772999999998,-9.67916355,0.8237586,0.018,0.282,-0.047
390905.852,-1.7063570999999995,-9.60071035,0.7943386499999999,0.041,0.198,-0.034
390905.892,-1.7161637499999998,-9.73800345,0.7943386499999999,0.041,0.143,-0.014
390905.932,-1.6475172,-9.6301303,0.83356525,0.051,0.049,0.001
390905.972,-1.4906107999999998,-9.63993695,0.8924051499999999,0.055,0.023,-0.017
390906.012,-1.4023509499999998,-9.65955025,0.91201845,0.04,0.045,-0.013
390906.052,-1.4317708999999998,-9.56148375,0.9414384,0.024,0.088,-0.01
390906.092,-1.55925735,-9.62032365,0.8531785499999999,0.01,0.071,-0.026
390906.132,-1.59848395,-9.6301303,0.93163175,0.006,0.024,-0.015
390906.171,-1.569064,-9.7281968,0.8433718999999998,0.027,-0.058,-0.001
390906.211,-1.3533177,-9.63993695,0.9610517,0.017,-0.074,0.003
390906.251,-1.36312435,-9.60071035,0.8825985,0.002,-0.048,-0.007
390906.291,-1.2944778,-9.6301303,0.9414384,-0.004,-0.059,-0.021
390906.331,-1.3533177,-9.63993695,0.9022118,-0.017,-0.024,-0.014
390906.37,-1.3827376499999997,-9.6693569,0.8825985,-0.016,-0.042,-0.012
390906.41,-1.36312435,-9.7478101,0.8629851999999999,-0.017,-0.052,-0.004
390906.45,-1.28467115,-9.58109705,0.980665,-0.015,-0.037,-0.009
390906.49,-1.3925442999999995,-9.6693569,0.7453053999999999,-0.022,-0.049,-0.015
390906.53,-1.2160246,-9.7085835,0.95124505,-0.021,-0.078,0.016
390906.57,-1.2552512,-9.6301303,0.9022118,-0.024,0.001,0.023
390906.61,-1.1964112999999998,-9.7281968,0.9414384,-0.007,-0.003,0.019
390906.65,-1.30428445,-9.7478101,0.83356525,-0.023,0.057,0.048
390906.69,-1.4023509499999998,-9.58109705,0.8629851999999999,-0.036,-0.06,-0.012
390906.73,-1.30428445,-9.71839015,0.99047165,-0.019,-0.005,-0.032
390906.77,-1.4317708999999998,-9.80665,0.7158854499999999,-0.009,-0.05,-0.013
390906.81,-1.2160246,-9.6301303,0.99047165,-0.012,-0.043,0.006
390906.85,-1.2944778,-9.502643849999998,0.97085835,-0.028,0.043,0.009
390906.89,-1.569064,-9.4928372,0.9218251,-0.06,0.1,-0.019
390906.93,-1.7455836999999998,-9.83606995,0.8041453,-0.033,0.048,-0.008
390906.97,-1.7259703999999998,-9.65955025,0.8531785499999999,-0.021,-0.038,0.07
390907.01,-1.6475172,-9.65955025,0.7649187,-0.019,-0.161,0.06
390907.05,-1.4317708999999998,-9.7478101,0.7551120499999999,-0.004,-0.226,0.027
390907.09,-1.1375714,-9.7674234,0.8727918499999999,0.0,-0.187,0.043
390907.13,-1.1179581,-9.590903699999998,0.784532,-0.01,-0.127,0.028
390907.17,-0.97085835,-9.7085835,0.95124505,0.0,-0.05,0.009
390907.21,-1.08853815,-9.7281968,0.8727918499999999,-0.003,0.154,0.034
390907.25,-1.4317708999999998,-9.7674234,0.7060787999999999,-0.005,0.202,0.021
390907.29,-1.53964405,-9.590903699999998,0.7256921,0.014,0.137,0.007
390907.33,-1.52003075,-9.65955025,0.6864655000000001,0.002,0.109,0.037
390907.363,-1.4121575999999998,-9.610517,0.7943386499999999,0.001,0.096,0.039
390907.403,-1.57887065,-9.590903699999998,0.93163175,-0.042,0.274,-0.01
390907.442,-1.93191005,-9.7281968,0.50013915,-0.002,0.115,-0.016
390907.482,-1.7063570999999995,-9.60071035,0.93163175,-0.011,0.064,0.037
390907.522,-1.9024901,-9.5712904,0.5982056499999999,-0.014,0.042,0.019
390907.562,-1.7357770499999998,-9.80665,0.784532,-0.013,-0.054,-0.003
390907.602,-1.63771055,-9.60071035,0.7551120499999999,-0.006,-0.076,0.005
390907.642,-1.5004174499999998,-9.8654899,0.6962721499999999,0.022,-0.15,-0.016
390907.682,-1.1571847,-9.7674234,0.8433718999999998,0.043,-0.124,-0.021
390907.722,-1.1179581,-9.5712904,0.91201845,0.024,0.039,-0.038
390907.762,-1.28467115,-9.71839015,0.784532,0.033,0.129,-0.057
390907.802,-1.3925442999999995,-9.67916355,0.9414384,0.025,0.214,-0.057
390907.842,-1.7259703999999998,-9.6693569,0.8041453,0.03,0.219,-0.081
390907.882,-1.7455836999999998,-9.69877685,0.7943386499999999,0.064,0.066,-0.07
390907.922,-1.6082906,-9.4928372,0.9414384,0.048,0.05,-0.023
390907.962,-1.6965504499999997,-9.46341725,1.0002783,0.025,0.086,-0.046
390908.002,-1.89268345,-9.7281968,0.9414384,0.009,0.105,-0.05
390908.042,-1.99074995,-9.73800345,0.83356525,0.028,-0.046,0.014
390908.082,-1.7848102999999995,-9.58109705,0.7649187,0.053,-0.28,0.045
390908.122,-1.2160246,-9.610517,1.0395048999999998,0.058,-0.298,0.035
390908.162,-1.12776475,-9.62032365,0.99047165,0.025,-0.099,0.04
390908.202,-1.16699135,-9.46341725,1.0002783,-0.009,-0.026,0.015
390908.242,-1.3140911,-9.610517,1.1179581,-0.022,0.077,-0.015
390908.282,-1.569064,-9.69877685,0.97085835,-0.009,0.088,-0.016
390908.322,-1.6082906,-9.6889702,1.0002783,0.001,0.063,0.022
390908.363,-1.63771055,-9.63993695,0.9022118,0.01,0.018,0.039
390908.403,-1.4121575999999998,-9.610517,1.08853815,0.015,-0.01,0.044
390908.443,-1.4709975,-9.7478101,1.0296982499999998,-0.002,0.091,0.03
390908.483,-1.5494507,-9.6301303,0.8629851999999999,0.004,-0.034,-0.019
390908.522,-1.30428445,-9.56148375,1.0787315,-0.013,-0.056,-0.026
390908.562,-1.36312435,-9.67916355,0.95124505,-0.031,-0.01,-0.079
390908.602,-1.4023509499999998,-9.58109705,1.0198915999999998,-0.047,0.011,-0.099
390908.642,-1.52003075,-9.6889702,0.99047165,-0.043,0.022,-0.084
390908.682,-1.5004174499999998,-9.73800345,1.0395048999999998,-0.01,0.021,-0.051
390908.722,-1.5298374,-9.67916355,0.95124505,-0.009,0.026,-0.02
390908.762,-1.5102240999999998,-9.65955025,0.9414384,0.007,-0.023,-0.026
390908.802,-1.34351105,-9.8262633,0.980665,0.024,-0.021,-0.009
390908.842,-1.2748645,-9.52225715,0.95124505,0.034,-0.004,-0.003
390908.882,-1.28467115,-9.56148375,0.93163175,0.012,0.034,-0.045
390908.922,-1.34351105,-9.590903699999998,1.01008495,-0.007,0.078,-0.036
390908.962,-1.52003075,-9.6497436,1.0787315,-0.014,0.172,0.02
390909.002,-1.75539035,-9.65955025,0.8433718999999998,-0.007,0.1,0.036
390909.042,-1.6475172,-9.81645665,0.8924051499999999,0.007,-0.072,0.042
390909.082,-1.4121575999999998,-9.610517,0.97085835,0.004,-0.102,0.034
390909.122,-1.30428445,-9.6497436,0.8629851999999999,0.007,-0.181,-0.001
390909.162,-1.0591182,-9.5124505,1.08853815,-0.03,-0.106,-0.03
390909.202,-1.2552512,-9.56148375,0.980665,-0.059,-0.017,-0.048
390909.242,-1.34351105,-9.69877685,1.08853815,-0.06,0.044,-0.032
390909.282,-1.63771055,-9.7281968,0.9414384,-0.056,0.052,-0.005
390909.322,-1.6671305,-9.6889702,0.95124505,-0.034,-0.082,0.003
390909.361,-1.4906107999999998,-9.6889702,0.9022118,-0.012,-0.218,0.005
390909.401,-1.10815145,-9.855683249999998,1.0395048999999998,0.008,-0.166,0.009
390909.441,-1.01008495,-9.7085835,1.0198915999999998,0.023,-0.048,0.016
390909.481,-1.1179581,-9.56148375,1.0002783,-0.002,0.075,-0.014
390909.521,-1.3533177,-9.67916355,0.8629851999999999,-0.006,0.055,-0.045
390909.56,-1.32389775,-9.7281968,1.0395048999999998,0.002,0.081,-0.004
390909.6,-1.5004174499999998,-9.69877685,0.8531785499999999,0.014,0.078,0.001
390909.64,-1.4219642499999998,-9.5516771,0.99047165,0.013,0.044,-0.012
390909.68,-1.5004174499999998,-9.62032365,0.91201845,0.001,0.058,0.01
390909.72,-1.4808041499999998,-9.69877685,0.99047165,0.002,0.05,0.015
390909.76,-1.52003075,-9.71839015,0.91201845,0.01,0.042,0.025
390909.8,-1.4219642499999998,-9.6497436,0.91201845,0.013,-0.021,0.028
390909.84,-1.3140911,-9.63993695,0.93163175,0.011,-0.02,0.01
390909.88,-1.2356379,-9.65955025,0.99047165,0.008,0.026,0.012
390909.92,-1.3140911,-9.71839015,0.93163175,0.006,0.112,0.02
390909.96,-1.3925442999999995,-9.63993695,0.9414384,0.0,0.127,0.025
390910.0,-1.5004174499999998,-9.63993695,0.9414384,-0.001,0.094,0.015
390910.04,-1.5102240999999998,-9.6497436,0.9414384,0.015,0.062,0.022
390910.08,-1.5102240999999998,-9.6889702,1.0198915999999998,-0.004,0.092,0.013
390910.12,-1.7063570999999995,-9.60071035,0.95124505,-0.008,0.101,-0.011
390910.16,-1.7259703999999998,-9.590903699999998,0.95124505,0.006,-0.051,-0.011
390910.2,-1.63771055,-9.590903699999998,0.9610517,-0.015,-0.043,0.017
390910.24,-1.6965504499999997,-9.5124505,0.9610517,-0.026,-0.128,-0.015
390910.28,-1.5298374,-9.5516771,1.12776475,-0.023,-0.101,0.008
390910.32,-1.61809725,-9.6497436,1.0983448,-0.04,0.007,0.056
390910.363,-1.9024901,-9.7281968,0.8629851999999999,-0.056,-0.039,0.043
390910.403,-1.8240369,-9.6301303,0.8531785499999999,-0.035,-0.28,0.018
390910.443,-1.4709975,-9.58109705,0.91201845,-0.022,-0.419,-0.006
390910.483,-1.1375714,-9.6889702,1.0395048999999998,-0.026,-0.303,-0.022
390910.523,-1.1964112999999998,-9.590903699999998,0.97085835,-0.061,-0.119,-0.017
390910.563,-1.32389775,-9.4536106,1.12776475,-0.076,-0.051,-0.019
390910.602,-1.6867437999999997,-9.5712904,1.0787315,-0.088,0.081,-0.024
390910.642,-1.97113665,-9.7674234,0.8531785499999999,-0.047,-0.058,-0.004
390910.682,-1.85345685,-9.79684335,0.81395195,-0.039,-0.15,0.067
390910.722,-1.63771055,-9.65955025,0.784532,-0.023,-0.346,0.051
390910.762,-1.1571847,-9.7870367,1.01008495,-0.004,-0.295,0.025
390910.802,-1.0395048999999998,-9.610517,0.8924051499999999,-0.0,-0.172,0.031
390910.842,-1.0395048999999998,-9.590903699999998,0.9610517,-0.034,-0.03,-0.006
390910.882,-1.2552512,-9.73800345,0.8727918499999999,-0.037,0.115,-0.015
390910.922,-1.5102240999999998,-9.4928372,1.0198915999999998,-0.036,0.19,-0.01
390910.962,-1.8044236,-10.01258965,0.61781895,-0.009,0.104,-0.01
390911.002,-1.4906107999999998,-9.7085835,0.9022118,0.017,-0.027,0.04
390911.042,-1.28467115,-9.5516771,0.9022118,0.028,-0.035,-0.007
390911.082,-1.14737805,-9.7085835,0.9610517,0.021,0.095,-0.052
390911.122,-1.46119085,-9.56148375,0.8629851999999999,-0.015,0.236,-0.027
390911.162,-1.8240369,-9.6301303,0.784532,-0.018,0.211,-0.055
390911.202,-1.81423025,-9.65955025,0.8629851999999999,0.012,0.065,-0.038
390911.242,-1.6867437999999997,-9.6497436,0.95124505,0.02,0.059,-0.004
390911.282,-1.7259703999999998,-9.60071035,0.8041453,0.007,0.027,-0.015
390911.322,-1.63771055,-9.7085835,0.8531785499999999,0.007,-0.07,-0.007
390911.363,-1.3827376499999997,-9.71839015,1.0395048999999998,0.025,-0.06,-0.017
390911.403,-1.4121575999999998,-9.62032365,0.8825985,0.023,-0.005,-0.039
390911.443,-1.4121575999999998,-9.6693569,0.81395195,0.013,-0.039,-0.036
390911.483,-1.3827376499999997,-9.58109705,0.9414384,-0.005,-0.008,-0.036
390911.523,-1.4121575999999998,-9.71839015,0.9414384,-0.002,0.008,-0.052
390911.563,-1.4219642499999998,-9.7478101,0.8924051499999999,0.001,-0.015,-0.045
390911.603,-1.4023509499999998,-9.60071035,0.8629851999999999,0.003,-0.052,-0.064
390911.643,-1.2356379,-9.5712904,0.9218251,-0.001,-0.046,-0.052
390911.682,-1.2160246,-9.65955025,1.0296982499999998,-0.019,0.045,-0.022
390911.722,-1.3925442999999995,-9.7674234,0.9414384,-0.019,0.133,-0.044
390911.762,-1.5004174499999998,-9.6497436,0.8629851999999999,0.003,0.021,-0.027
390911.802,-1.3827376499999997,-9.56148375,0.9218251,0.009,-0.001,0.002
390911.842,-1.3140911,-9.69877685,0.9218251,0.004,0.024,-0.002
390911.882,-1.26505785,-9.63993695,1.01008495,0.005,0.056,0.019
390911.922,-1.3533177,-9.65955025,0.980665,-0.0,0.119,0.012
390911.962,-1.569064,-9.73800345,0.81395195,-0.007,0.084,-0.008
390912.002,-1.4906107999999998,-9.6301303,1.01008495,0.003,0.006,-0.002
390912.042,-1.5298374,-9.6693569,0.8727918499999999,0.004,-0.001,0.003
390912.082,-1.3925442999999995,-9.5712904,0.9610517,0.002,-0.028,0.005
390912.122,-1.36312435,-9.610517,0.8629851999999999,-0.008,-0.014,0.026
390912.161,-1.2552512,-9.75761675,0.9022118,-0.018,-0.025,0.033
390912.201,-1.24544455,-9.590903699999998,1.0591182,-0.034,0.067,0.014
390912.241,-1.5298374,-9.6693569,0.91201845,-0.038,0.101,-0.022
390912.281,-1.7063570999999995,-9.67916355,0.7943386499999999,-0.028,0.016,-0.009
390912.321,-1.6279039,-9.63993695,0.8629851999999999,-0.025,-0.075,0.022
390912.361,-1.44157755,-9.6889702,0.8825985,-0.017,-0.112,-0.002
390912.401,-1.2944778,-9.73800345,0.97085835,-0.021,-0.095,-0.023
390912.441,-1.3827376499999997,-9.590903699999998,0.8727918499999999,-0.02,-0.04,-0.026
390912.481,-1.34351105,-9.6497436,0.8531785499999999,-0.01,-0.074,-0.035
390912.521,-1.26505785,-9.69877685,0.9218251,-0.011,-0.004,0.001
390912.561,-1.34351105,-9.71839015,0.95124505,-0.023,0.067,-0.018
390912.601,-1.52003075,-9.60071035,0.8924051499999999,-0.02,0.062,-0.022
390912.641,-1.5494507,-9.65955025,0.8237586,-0.002,-0.006,0.005
390912.681,-1.4317708999999998,-9.73800345,0.81395195,-0.005,-0.029,0.008
390912.721,-1.2944778,-9.63993695,1.01008495,-0.005,0.014,0.004
390912.76,-1.44157755,-9.71839015,0.7649187,-0.002,0.024,0.001
390912.8,-1.3925442999999995,-9.56148375,0.8433718999999998,-0.014,-0.032,-0.014
390912.84,-1.372931,-9.6693569,0.8629851999999999,-0.018,-0.027,-0.017
390912.88,-1.3337044,-9.65955025,0.8924051499999999,-0.019,-0.011,-0.011
390912.92,-1.4219642499999998,-9.65955025,0.91201845,-0.037,0.036,-0.016
390912.96,-1.53964405,-9.7281968,0.81395195,-0.025,-0.016,-0.026
390913.0,-1.4023509499999998,-9.75761675,0.8531785499999999,0.0,-0.087,0.0
390913.04,-1.2748645,-9.6301303,0.8825985,-0.001,-0.056,-0.019
390913.08,-1.2552512,-9.65955025,0.8531785499999999,-0.004,-0.039,-0.026
390913.12,-1.2748645,-9.69877685,0.93163175,-0.0,0.028,-0.017
390913.16,-1.5004174499999998,-9.7674234,0.7453053999999999,-0.005,0.025,-0.033
390913.2,-1.3925442999999995,-9.62032365,0.91201845,0.003,-0.052,-0.018
390913.24,-1.36312435,-9.6693569,0.81395195,0.006,-0.071,-0.009
390913.28,-1.2552512,-9.7085835,0.8433718999999998,-0.004,-0.046,-0.013
390913.32,-1.2356379,-9.7281968,0.8531785499999999,-0.005,-0.034,-0.006
390913.361,-1.1375714,-9.73800345,0.8924051499999999,0.006,-0.019,-0.001
390913.401,-1.1866046499999998,-9.6889702,0.81395195,0.0,0.002,-0.003
390913.441,-1.22583125,-9.63993695,0.83356525,-0.004,0.016,-0.015
390913.481,-1.2160246,-9.7870367,0.784532,0.011,0.014,0.002
390913.521,-1.12776475,-9.6889702,0.8924051499999999,0.01,0.039,0.014
390913.561,-1.1767979999999998,-9.590903699999998,0.8531785499999999,0.003,0.082,-0.014
390913.601,-1.2748645,-9.7085835,0.8825985,0.002,0.095,-0.021
390913.641,-1.372931,-9.71839015,0.8924051499999999,0.001,0.146,0.0
390913.681,-1.4906107999999998,-9.6497436,0.83356525,0.014,0.107,0.013
390913.721,-1.4219642499999998,-9.71839015,0.8531785499999999,0.027,0.063,0.021
390913.761,-1.4808041499999998,-9.7085835,0.9218251,0.015,0.067,0.01
390913.8,-1.5102240999999998,-9.6889702,0.93163175,0.033,0.059,0.007
390913.84,-1.5004174499999998,-9.6497436,0.9022118,0.039,0.046,0.02
390913.88,-1.4709975,-9.6497436,0.8433718999999998,0.035,0.01,0.035
390913.92,-1.372931,-9.62032365,0.9218251,0.026,-0.016,0.027
390913.96,-1.30428445,-9.65955025,0.9610517,0.02,0.017,0.014
390914.0,-1.372931,-9.610517,0.95124505,0.009,0.03,0.009
390914.04,-1.44157755,-9.610517,0.91201845,-0.003,0.019,0.01
390914.08,-1.46119085,-9.7085835,1.0002783,0.003,-0.003,0.002
390914.12,-1.44157755,-9.71839015,1.01008495,0.004,0.014,0.01
390914.16,-1.4709975,-9.62032365,0.93163175,0.008,-0.04,-0.001
390914.2,-1.3925442999999995,-9.62032365,0.980665,-0.001,-0.049,-0.009
390914.24,-1.36312435,-9.610517,1.0002783,-0.01,-0.023,-0.007
390914.28,-1.3827376499999997,-9.65955025,1.01008495,-0.014,0.019,-0.005
390914.32,-1.5102240999999998,-9.7085835,0.97085835,-0.014,0.028,0.001
390914.36,-1.4906107999999998,-9.6301303,0.99047165,-0.003,-0.023,0.004
390914.4,-1.4023509499999998,-9.58109705,1.0591182,-0.001,-0.008,0.004
390914.44,-1.5004174499999998,-9.6301303,0.91201845,-0.008,-0.01,0.005
390914.48,-1.4121575999999998,-9.67916355,1.0296982499999998,-0.008,-0.02,0.009
390914.52,-1.4317708999999998,-9.65955025,1.0983448,-0.01,0.026,0.006
390914.56,-1.5494507,-9.67916355,0.9218251,-0.002,-0.002,0.0
390914.6,-1.5102240999999998,-9.63993695,1.0296982499999998,-0.002,-0.013,0.005
390914.64,-1.5298374,-9.610517,1.0198915999999998,-0.002,-0.005,0.002
390914.68,-1.53964405,-9.65955025,0.9610517,-0.001,-0.013,0.004
390914.72,-1.5102240999999998,-9.590903699999998,0.93163175,-0.003,-0.055,-0.01
390914.76,-1.3827376499999997,-9.6301303,0.99047165,-0.012,-0.043,-0.01
390914.8,-1.3827376499999997,-9.6497436,1.0198915999999998,-0.016,0.006,-0.004
390914.839,-1.46119085,-9.6301303,0.95124505,-0.019,0.025,-0.001
390914.879,-1.4709975,-9.6497436,0.95124505,-0.018,0.024,0.006
390914.919,-1.4906107999999998,-9.73800345,0.95124505,-0.017,0.019,-0.005
390914.959,-1.4513842,-9.62032365,1.0002783,-0.01,0.007,-0.003
390914.999,-1.46119085,-9.590903699999998,0.9022118,-0.008,0.004,0.011
390915.039,-1.4317708999999998,-9.6497436,0.93163175,-0.02,0.013,-0.002
390915.079,-1.4317708999999998,-9.71839015,1.0198915999999998,-0.016,0.036,0.007
390915.119,-1.5298374,-9.6497436,0.91201845,-0.005,0.02,0.005
390915.159,-1.5102240999999998,-9.610517,0.8825985,-0.004,-0.018,-0.014
390915.199,-1.4121575999999998,-9.6301303,0.9414384,-0.009,-0.011,-0.003
390915.239,-1.46119085,-9.67916355,0.9414384,-0.012,0.028,0.001
390915.279,-1.4906107999999998,-9.62032365,0.93163175,-0.009,0.028,-0.006
390915.319,-1.53964405,-9.63993695,0.8924051499999999,-0.012,0.007,-0.006
390915.359,-1.52003075,-9.65955025,0.9022118,-0.011,-0.016,-0.01
390915.399,-1.4906107999999998,-9.6693569,0.99047165,-0.01,-0.01,-0.002
390915.439,-1.5102240999999998,-9.63993695,0.9414384,-0.007,-0.013,-0.013
390915.479,-1.5298374,-9.65955025,0.8924051499999999,-0.004,-0.028,-0.008
390915.519,-1.5004174499999998,-9.67916355,0.9218251,-0.008,-0.043,-0.018
390915.559,-1.4317708999999998,-9.6301303,0.99047165,0.0,-0.051,-0.018
390915.599,-1.44157755,-9.6497436,0.99047165,-0.003,-0.013,-0.017
390915.639,-1.5004174499999998,-9.6301303,0.91201845,0.001,-0.007,-0.024
390915.679,-1.4709975,-9.7085835,0.9610517,0.002,-0.011,0.014
390915.719,-1.4709975,-9.610517,0.9414384,0.003,-0.021,0.001
390915.759,-1.4219642499999998,-9.65955025,0.9610517,0.0,-0.018,-0.015
390915.799,-1.44157755,-9.63993695,0.9610517,-0.003,0.009,0.006
390915.839,-1.4906107999999998,-9.62032365,0.9218251,-0.003,0.013,0.0
390915.879,-1.4808041499999998,-9.7085835,0.91201845,-0.003,-0.011,-0.002
390915.918,-1.46119085,-9.590903699999998,0.980665,-0.004,-0.018,-0.004
390915.958,-1.44157755,-9.67916355,0.9218251,-0.002,-0.019,-0.013
390915.998,-1.3925442999999995,-9.63993695,0.980665,-0.005,0.003,-0.0
390916.038,-1.4219642499999998,-9.62032365,0.9610517,-0.01,0.021,-0.002
390916.078,-1.4709975,-9.6889702,0.95124505,-0.009,0.028,-0.003
390916.118,-1.5004174499999998,-9.7085835,0.9610517,-0.005,0.026,-0.007
390916.158,-1.4709975,-9.60071035,0.99047165,0.001,-0.003,-0.009
390916.198,-1.4906107999999998,-9.62032365,0.8825985,-0.005,-0.007,-0.011
390916.238,-1.4317708999999998,-9.65955025,1.01008495,-0.012,-0.013,-0.013
390916.278,-1.4906107999999998,-9.6497436,1.0002783,-0.009,0.019,-0.02
390916.318,-1.4906107999999998,-9.71839015,0.9414384,0.003,-0.029,-0.016
390916.358,-1.4317708999999998,-9.60071035,0.980665,-0.005,-0.004,0.002
390916.397,-1.46119085,-9.60071035,0.95124505,-0.007,-0.008,-0.024
390916.437,-1.4513842,-9.6693569,0.97085835,-0.015,0.001,-0.012
390916.477,-1.4808041499999998,-9.67916355,0.97085835,-0.013,-0.0,-0.004
390916.517,-1.4317708999999998,-9.6301303,0.9610517,-0.007,-0.017,-0.011
390916.557,-1.4317708999999998,-9.60071035,0.9414384,-0.013,-0.006,-0.002
390916.597,-1.4023509499999998,-9.6889702,0.980665,-0.014,0.007,-0.007
390916.637,-1.4317708999999998,-9.62032365,0.99047165,-0.011,0.021,0.008
390916.677,-1.5004174499999998,-9.7085835,0.8825985,-0.008,0.003,-0.004
390916.717,-1.4121575999999998,-9.7281968,0.9610517,-0.006,-0.019,-0.006
390916.757,-1.4219642499999998,-9.56148375,1.01008495,-0.006,0.01,-0.015
390916.797,-1.46119085,-9.7085835,0.8531785499999999,-0.003,-0.022,-0.011
390916.837,-1.372931,-9.6889702,0.99047165,-0.011,0.004,0.015
390916.877,-1.4121575999999998,-9.65955025,0.95124505,-0.004,0.005,-0.02
390916.917,-1.4219642499999998,-9.6693569,0.91201845,-0.002,-0.015,-0.017
390916.956,-1.4121575999999998,-9.610517,0.91201845,-0.007,-0.014,-0.007
390916.996,-1.372931,-9.65955025,0.9610517,-0.009,0.01,-0.01
390917.036,-1.4121575999999998,-9.6693569,0.95124505,-0.013,0.021,-0.001
390917.076,-1.4513842,-9.63993695,0.93163175,-0.012,0.018,-0.005
390917.116,-1.4513842,-9.65955025,0.9218251,-0.012,-0.005,-0.011
390917.156,-1.4317708999999998,-9.6889702,0.9414384,-0.014,-0.003,-0.004
390917.196,-1.44157755,-9.6497436,0.9414384,-0.01,-0.001,-0.009
390917.236,-1.44157755,-9.65955025,0.9022118,-0.009,-0.022,-0.007
390917.276,-1.372931,-9.65955025,0.93163175,-0.007,-0.027,-0.001
390917.316,-1.372931,-9.7281968,0.91201845,-0.01,-0.008,-0.009
390917.356,-1.3337044,-9.60071035,0.99047165,-0.007,0.009,-0.007
390917.396,-1.4513842,-9.610517,0.8531785499999999,-0.01,0.02,-0.005
390917.436,-1.44157755,-9.7085835,0.8924051499999999,-0.015,-0.015,-0.002
390917.476,-1.3925442999999995,-9.69877685,1.0395048999999998,-0.008,0.013,-0.001
390917.516,-1.4906107999999998,-9.67916355,0.8924051499999999,0.002,-0.012,-0.013
390917.556,-1.4513842,-9.6301303,0.8825985,0.005,-0.048,-0.005
390917.596,-1.34351105,-9.6889702,0.95124505,0.0,-0.029,0.002
390917.636,-1.372931,-9.6693569,0.980665,-0.002,0.013,-0.004
390917.676,-1.46119085,-9.6497436,0.91201845,0.003,0.003,-0.008
390917.716,-1.4709975,-9.6693569,0.8531785499999999,0.003,-0.025,0.01
390917.756,-1.372931,-9.62032365,0.93163175,0.001,-0.048,0.0
390917.796,-1.30428445,-9.63993695,1.0002783,-0.002,-0.007,-0.004
390917.836,-1.3925442999999995,-9.6497436,0.9610517,-0.009,0.044,0.003
390917.876,-1.4906107999999998,-9.6693569,0.8727918499999999,-0.006,0.018,0.007
390917.916,-1.4513842,-9.7281968,0.9414384,-0.005,-0.008,0.008
390917.956,-1.3533177,-9.62032365,1.0395048999999998,-0.002,-0.001,-0.003
390917.996,-1.4317708999999998,-9.6301303,0.93163175,-0.007,0.03,-0.004
390918.035,-1.5102240999999998,-9.6497436,0.91201845,-0.014,0.028,-0.007
390918.075,-1.5298374,-9.69877685,1.0002783,-0.004,0.003,-0.002
390918.115,-1.5102240999999998,-9.67916355,0.93163175,0.01,-0.024,0.01
390918.155,-1.4219642499999998,-9.62032365,0.9218251,0.007,-0.049,-0.002
390918.195,-1.3533177,-9.62032365,0.980665,-0.004,-0.02,-0.005
390918.235,-1.4121575999999998,-9.6693569,0.99047165,-0.006,0.017,-0.007
390918.275,-1.5004174499999998,-9.6889702,0.93163175,-0.003,0.005,-0.002
390918.315,-1.4709975,-9.60071035,0.95124505,0.0,-0.036,-0.002
390918.355,-1.3925442999999995,-9.6889702,1.0002783,-0.003,-0.018,-0.004
390918.395,-1.4513842,-9.63993695,1.0002783,0.0,0.016,-0.012
390918.435,-1.4906107999999998,-9.73800345,0.93163175,0.006,-0.003,0.005
390918.475,-1.44157755,-9.590903699999998,0.97085835,0.008,-0.032,0.005
390918.515,-1.3533177,-9.6497436,0.97085835,0.006,-0.019,-0.002
390918.555,-1.3827376499999997,-9.6497436,0.980665,-0.01,0.026,-0.015
390918.595,-1.44157755,-9.6301303,0.980665,-0.011,0.031,-0.011
390918.635,-1.4906107999999998,-9.610517,0.95124505,-0.013,0.024,-0.006
390918.675,-1.5004174499999998,-9.6693569,0.980665,-0.016,0.014,-0.015
390918.715,-1.4906107999999998,-9.67916355,1.0002783,-0.008,0.015,0.005
390918.755,-1.5102240999999998,-9.6497436,0.9414384,-0.003,-0.013,-0.001
390918.795,-1.4317708999999998,-9.63993695,0.97085835,-0.005,-0.03,-0.004
390918.835,-1.4121575999999998,-9.6301303,0.980665,-0.011,-0.015,-0.004
390918.875,-1.44157755,-9.6693569,0.97085835,-0.011,0.005,-0.008
390918.915,-1.46119085,-9.67916355,0.9610517,-0.012,-0.012,0.003
390918.955,-1.4317708999999998,-9.63993695,1.01008495,-0.002,-0.03,-0.017
390918.995,-1.44157755,-9.6497436,0.9414384,-0.004,-0.029,-0.007
390919.035,-1.3827376499999997,-9.7478101,1.01008495,-0.003,-0.012,-0.003
390919.075,-1.4317708999999998,-9.610517,1.0002783,0.001,0.01,-0.013
390919.114,-1.44157755,-9.60071035,0.8825985,0.002,-0.034,-0.01
390919.154,-1.3827376499999997,-9.6889702,0.95124505,-0.014,-0.029,-0.013
390919.194,-1.3140911,-9.6301303,1.0983448,-0.014,0.026,-0.011
390919.234,-1.46119085,-9.62032365,0.97085835,-0.013,0.054,0.003
390919.274,-1.5494507,-9.65955025,0.8924051499999999,-0.016,0.018,-0.004
390919.315,-1.4906107999999998,-9.67916355,0.99047165,-0.01,-0.009,-0.006
390919.354,-1.44157755,-9.65955025,0.980665,-0.004,-0.03,0.002
390919.394,-1.3925442999999995,-9.6301303,0.9610517,-0.005,-0.027,-0.01
390919.434,-1.372931,-9.63993695,0.99047165,-0.013,0.01,-0.001
390919.474,-1.4709975,-9.6693569,0.95124505,-0.015,0.025,-0.005
390919.514,-1.4808041499999998,-9.6889702,0.980665,-0.005,-0.01,0.004
390919.554,-1.4513842,-9.6497436,0.9414384,-0.002,-0.018,0.005
390919.594,-1.4121575999999998,-9.62032365,0.93163175,-0.006,-0.038,-0.007
390919.634,-1.372931,-9.65955025,0.97085835,-0.009,0.0,0.0
390919.674,-1.4219642499999998,-9.67916355,0.93163175,-0.01,-0.008,-0.001
390919.714,-1.4023509499999998,-9.6693569,0.95124505,-0.006,-0.018,-0.008
390919.754,-1.3925442999999995,-9.6693569,0.95124505,-0.006,-0.016,-0.015
390919.794,-1.372931,-9.6889702,1.0002783,-0.001,0.009,-0.007
390919.834,-1.44157755,-9.610517,0.9414384,-0.003,0.022,-0.005
390919.874,-1.5004174499999998,-9.6497436,0.9022118,-0.006,-0.006,-0.007
390919.914,-1.4023509499999998,-9.67916355,0.99047165,-0.003,-0.012,0.007
390919.954,-1.4219642499999998,-9.63993695,0.97085835,-0.004,0.003,-0.003
390919.994,-1.4513842,-9.65955025,0.9414384,-0.008,0.013,-0.005
390920.034,-1.46119085,-9.6497436,0.97085835,-0.009,0.001,-0.003
390920.074,-1.4808041499999998,-9.6693569,0.95124505,-0.006,-0.001,-0.003
390920.114,-1.44157755,-9.6497436,0.95124505,-0.004,-0.012,0.009
390920.153,-1.4317708999999998,-9.63993695,0.93163175,-0.009,-0.008,-0.006
390920.193,-1.4317708999999998,-9.6693569,0.99047165,-0.011,0.002,-0.012
390920.233,-1.46119085,-9.6693569,0.95124505,-0.005,-0.002,-0.001
390920.273,-1.4513842,-9.5712904,0.93163175,-0.008,-0.015,-0.007
390920.313,-1.4513842,-9.71839015,0.91201845,-0.011,-0.014,-0.009
390920.353,-1.3925442999999995,-9.69877685,1.0198915999999998,-0.011,-0.003,-0.008
390920.393,-1.4219642499999998,-9.590903699999998,0.99047165,-0.003,0.01,-0.004
390920.433,-1.4906107999999998,-9.63993695,0.8825985,-0.008,-0.002,-0.006
390920.473,-1.4709975,-9.69877685,0.97085835,-0.012,-0.003,0.002
390920.513,-1.4219642499999998,-9.6889702,1.0002783,-0.006,-0.014,0.001
390920.553,-1.4317708999999998,-9.6497436,0.93163175,-0.004,-0.022,-0.012
390920.593,-1.4121575999999998,-9.60071035,0.9610517,-0.01,-0.011,-0.013
390920.633,-1.4513842,-9.6497436,0.93163175,-0.01,0.001,-0.014
390920.673,-1.4513842,-9.7085835,1.0002783,-0.009,0.004,-0.005
390920.713,-1.4808041499999998,-9.6889702,0.93163175,0.002,-0.024,-0.006
390920.753,-1.372931,-9.63993695,0.9610517,-0.001,-0.041,-0.014
390920.793,-1.36312435,-9.590903699999998,0.980665,-0.003,-0.004,-0.025
390920.833,-1.4219642499999998,-9.6693569,0.97085835,-0.009,0.021,-0.023
390920.873,-1.4906107999999998,-9.6889702,0.9414384,-0.01,0.012,-0.014
390920.913,-1.4906107999999998,-9.65955025,0.8924051499999999,0.001,-0.03,-0.007
390920.953,-1.3140911,-9.63993695,1.0002783,-0.002,-0.031,-0.007
390920.993,-1.3337044,-9.610517,0.980665,-0.013,0.026,-0.014
390921.033,-1.4317708999999998,-9.65955025,0.93163175,-0.017,0.034,-0.019
390921.073,-1.4906107999999998,-9.69877685,0.93163175,-0.014,0.011,-0.002
390921.113,-1.3925442999999995,-9.6301303,0.980665,-0.0,-0.019,0.002
390921.153,-1.34351105,-9.65955025,0.95124505,-0.007,0.009,0.0
390921.192,-1.372931,-9.65955025,0.9218251,-0.013,0.018,-0.012
390921.232,-1.3925442999999995,-9.69877685,0.95124505,-0.011,0.014,-0.007
390921.272,-1.4023509499999998,-9.69877685,0.9414384,-0.003,-0.01,-0.013
390921.312,-1.3337044,-9.6889702,0.9610517,-0.005,-0.003,-0.012
390921.352,-1.372931,-9.6693569,0.95124505,-0.01,0.001,-0.032
390921.392,-1.4121575999999998,-9.7085835,0.9218251,-0.007,-0.015,-0.037
390921.432,-1.36312435,-9.65955025,0.95124505,-0.001,-0.037,-0.028
390921.472,-1.32389775,-9.63993695,0.93163175,-0.001,-0.012,-0.018
390921.512,-1.3337044,-9.73800345,0.93163175,0.001,-0.006,-0.025
390921.552,-1.34351105,-9.6301303,1.0002783,0.0,0.013,-0.011
390921.592,-1.44157755,-9.6497436,0.8924051499999999,0.008,0.0,-0.012
390921.632,-1.3533177,-9.67916355,0.9218251,0.003,-0.015,0.007
390921.672,-1.32389775,-9.60071035,0.9414384,-0.003,-0.011,0.01
390921.712,-1.30428445,-9.73800345,0.99047165,-0.006,-0.002,-0.01
390921.752,-1.28467115,-9.6693569,0.97085835,0.001,0.007,0.013
390921.792,-1.36312435,-9.62032365,0.8924051499999999,-0.011,0.017,0.005
390921.832,-1.32389775,-9.6693569,0.95124505,-0.015,-0.013,-0.01
390921.872,-1.2944778,-9.69877685,0.97085835,-0.014,-0.013,0.002
390921.912,-1.2944778,-9.67916355,0.9610517,-0.01,-0.001,-0.01
390921.952,-1.32389775,-9.6497436,0.980665,-0.013,0.03,-0.005
390921.992,-1.4121575999999998,-9.6889702,0.91201845,-0.009,0.001,-0.008
390922.032,-1.34351105,-9.71839015,0.97085835,-0.002,-0.019,0.004
390922.072,-1.2944778,-9.67916355,0.99047165,0.003,0.006,0.013
390922.112,-1.36312435,-9.6889702,0.9414384,-0.007,0.025,-0.009
390922.152,-1.3827376499999997,-9.63993695,0.97085835,-0.006,-0.003,-0.016
390922.192,-1.3925442999999995,-9.6497436,0.93163175,-0.009,0.002,-0.009
390922.232,-1.4121575999999998,-9.7085835,0.9218251,-0.008,-0.018,-0.004
390922.271,-1.372931,-9.65955025,0.99047165,-0.006,-0.009,0.011
390922.311,-1.36312435,-9.6497436,0.9610517,-0.001,-0.019,-0.0
390922.351,-1.3533177,-9.6497436,0.9414384,-0.003,-0.021,-0.004
390922.391,-1.36312435,-9.6497436,0.95124505,-0.01,-0.017,0.001
390922.431,-1.36312435,-9.6693569,1.01008495,-0.011,0.002,-0.004
390922.471,-1.4317708999999998,-9.69877685,0.9218251,-0.007,-0.018,0.0
390922.511,-1.34351105,-9.6497436,0.99047165,-0.005,-0.037,-0.004
390922.551,-1.32389775,-9.6497436,0.980665,-0.006,-0.03,-0.009
390922.591,-1.3337044,-9.67916355,0.980665,-0.009,-0.002,-0.006
390922.631,-1.3827376499999997,-9.610517,0.9414384,-0.013,0.002,-0.012
390922.671,-1.3827376499999997,-9.67916355,0.93163175,-0.015,-0.022,-0.008
390922.711,-1.34351105,-9.7281968,0.99047165,-0.016,-0.014,-0.011
390922.751,-1.3140911,-9.60071035,1.0296982499999998,-0.012,0.018,-0.012
390922.791,-1.4219642499999998,-9.6301303,0.8924051499999999,-0.018,0.026,0.001
390922.831,-1.4317708999999998,-9.6889702,0.9218251,-0.02,0.007,-0.0
390922.871,-1.3827376499999997,-9.71839015,0.97085835,-0.012,-0.008,-0.005
390922.911,-1.34351105,-9.6693569,0.9414384,-0.007,-0.016,-0.001
390922.951,-1.3140911,-9.610517,0.8825985,-0.012,-0.014,-0.011
390922.991,-1.30428445,-9.6889702,0.93163175,-0.024,0.01,-0.018
390923.031,-1.34351105,-9.71839015,0.9218251,-0.015,0.009,-0.012
390923.071,-1.34351105,-9.6693569,0.9218251,-0.006,0.011,-0.008
390923.111,-1.36312435,-9.7085835,0.8727918499999999,-0.005,-0.001,-0.013
390923.151,-1.3140911,-9.67916355,0.9414384,-0.005,0.001,-0.017
390923.191,-1.3337044,-9.6497436,0.8924051499999999,-0.006,0.009,-0.011
390923.231,-1.30428445,-9.62032365,0.9022118,-0.005,-0.004,-0.006
390923.271,-1.3337044,-9.71839015,0.9022118,-0.016,0.036,-0.014
390923.31,-1.372931,-9.69877685,0.95124505,-0.011,0.028,-0.015
390923.35,-1.4317708999999998,-9.590903699999998,0.9218251,-0.003,0.024,0.001
390923.39,-1.4513842,-9.6497436,0.81395195,-0.007,-0.013,0.004
390923.43,-1.34351105,-9.73800345,0.95124505,-0.01,-0.034,0.011
390923.47,-1.3337044,-9.73800345,0.9218251,-0.001,-0.027,0.009
390923.51,-1.2748645,-9.610517,0.91201845,0.001,-0.05,0.0
390923.55,-1.3337044,-9.6693569,0.81395195,-0.009,-0.055,-0.022
390923.59,-1.1866046499999998,-9.71839015,0.99047165,-0.007,-0.046,-0.015
390923.63,-1.2552512,-9.6889702,0.95124505,-0.009,0.016,-0.013
390923.67,-1.30428445,-9.69877685,0.8924051499999999,-0.0,0.005,-0.017
390923.71,-1.28467115,-9.610517,0.9218251,-0.006,-0.001,-0.013
390923.75,-1.3140911,-9.69877685,0.91201845,-0.009,0.026,-0.019
390923.79,-1.36312435,-9.67916355,0.9218251,-0.01,0.014,-0.011
390923.83,-1.3827376499999997,-9.7281968,0.8924051499999999,0.002,-0.003,-0.011
390923.87,-1.2944778,-9.7085835,0.93163175,0.005,-0.017,-0.006
390923.91,-1.2356379,-9.60071035,0.9610517,0.0,0.013,0.001
390923.95,-1.3140911,-9.610517,0.8924051499999999,-0.012,0.039,-0.019
390923.99,-1.372931,-9.71839015,0.93163175,-0.017,0.039,-0.012
390924.03,-1.4121575999999998,-9.73800345,0.9218251,-0.005,0.014,-0.006
390924.07,-1.3533177,-9.63993695,0.9218251,0.003,-0.025,-0.006
390924.11,-1.30428445,-9.62032365,0.8727918499999999,-0.004,-0.043,-0.011
390924.15,-1.20621795,-9.69877685,0.97085835,-0.01,-0.006,-0.009
390924.19,-1.2748645,-9.6889702,0.9218251,-0.011,0.022,-0.007
390924.23,-1.3140911,-9.6889702,0.93163175,-0.012,0.011,-0.015
390924.27,-1.36312435,-9.7085835,0.8825985,-0.006,-0.009,-0.013
390924.31,-1.30428445,-9.6889702,0.9218251,-0.004,-0.032,-0.013
390924.35,-1.22583125,-9.6693569,0.9218251,-0.001,-0.034,-0.015
390924.389,-1.20621795,-9.69877685,0.9022118,-0.003,-0.005,-0.012
390924.429,-1.2356379,-9.71839015,0.9414384,-0.007,0.032,-0.013
390924.469,-1.3140911,-9.6497436,0.9022118,-0.003,0.022,-0.011
390924.509,-1.2944778,-9.67916355,0.8924051499999999,0.001,0.0,-0.002
390924.549,-1.26505785,-9.610517,0.93163175,-0.007,-0.004,-0.004
390924.589,-1.24544455,-9.77723005,0.8825985,-0.002,-0.003,-0.015
390924.629,-1.2356379,-9.63993695,0.980665,-0.006,0.023,0.001
390924.669,-1.3337044,-9.6497436,0.8924051499999999,-0.007,0.014,-0.024
390924.709,-1.32389775,-9.7478101,0.8727918499999999,-0.007,-0.009,0.004
390924.749,-1.26505785,-9.6497436,0.9610517,-0.005,-0.009,0.01
390924.789,-1.26505785,-9.6889702,0.9414384,-0.006,0.001,-0.01
390924.829,-1.2944778,-9.7085835,0.91201845,-0.006,-0.007,-0.011
390924.869,-1.3140911,-9.6497436,0.9218251,-0.004,-0.024,-0.013
390924.909,-1.24544455,-9.7085835,0.9414384,0.0,-0.016,0.001
390924.949,-1.14737805,-9.63993695,0.97085835,0.005,-0.007,0.012
390924.989,-1.1964112999999998,-9.7870367,0.9022118,-0.005,0.049,-0.002
390925.029,-1.2356379,-9.67916355,0.980665,-0.006,0.056,-0.019
390925.069,-1.372931,-9.6497436,0.93163175,-0.0,0.042,-0.021
390925.109,-1.3827376499999997,-9.7281968,0.8924051499999999,0.008,-0.011,-0.001
390925.149,-1.28467115,-9.7085835,0.9414384,0.011,-0.033,0.008
390925.189,-1.20621795,-9.6693569,0.9610517,0.012,-0.018,-0.001
390925.229,-1.1767979999999998,-9.62032365,0.9414384,0.005,0.002,-0.003
390925.269,-1.22583125,-9.7085835,0.9022118,-0.007,0.018,-0.003
390925.309,-1.26505785,-9.62032365,0.97085835,-0.009,0.039,-0.001
390925.349,-1.3337044,-9.7281968,0.9022118,-0.006,0.028,0.002
390925.389,-1.3533177,-9.69877685,0.91201845,-0.003,-0.019,0.002
390925.428,-1.2944778,-9.65955025,0.9414384,0.001,-0.031,0.001
390925.468,-1.22583125,-9.6693569,0.9414384,0.002,-0.038,0.007
390925.508,-1.1964112999999998,-9.6497436,0.9610517,-0.009,-0.002,-0.001
390925.548,-1.24544455,-9.7281968,0.9414384,-0.006,0.037,-0.005
390925.588,-1.32389775,-9.65955025,0.9218251,-0.01,0.033,-0.003
390925.628,-1.3140911,-9.69877685,0.91201845,-0.008,-0.001,-0.009
390925.668,-1.24544455,-9.63993695,0.99047165,-0.004,-0.01,-0.001
390925.708,-1.2748645,-9.7085835,0.93163175,-0.006,0.022,-0.005
390925.748,-1.2944778,-9.7085835,0.980665,-0.005,0.049,0.005
390925.788,-1.34351105,-9.69877685,0.93163175,0.001,0.039,0.004
390925.828,-1.3140911,-9.62032365,0.9610517,0.002,0.02,-0.009
390925.868,-1.2944778,-9.6693569,0.9218251,0.0,0.025,-0.002
390925.908,-1.28467115,-9.67916355,0.97085835,-0.008,0.053,0.007
390925.948,-1.32389775,-9.73800345,0.93163175,-0.003,0.051,0.004
390925.988,-1.3140911,-9.6693569,0.99047165,0.002,0.032,-0.002
390926.028,-1.3140911,-9.590903699999998,0.9022118,-0.001,0.021,-0.013
390926.068,-1.2944778,-9.7085835,0.9022118,-0.009,0.022,-0.007
390926.108,-1.3337044,-9.62032365,0.9414384,-0.02,0.045,-0.01
390926.148,-1.3827376499999997,-9.7281968,0.9022118,-0.014,0.016,-0.018
390926.188,-1.3140911,-9.7674234,0.9610517,-0.007,-0.005,-0.009
390926.228,-1.3140911,-9.62032365,0.9218251,0.0,-0.001,-0.003
390926.268,-1.3533177,-9.62032365,0.93163175,0.01,-0.025,-0.02
390926.308,-1.26505785,-9.7478101,1.0002783,-0.012,-0.002,0.006
390926.348,-1.34351105,-9.5712904,0.95124505,-0.014,0.029,-0.005
390926.389,-1.372931,-9.7281968,0.8727918499999999,-0.008,-0.002,-0.016
390926.429,-1.2748645,-9.7281968,0.980665,-0.009,-0.006,0.018
390926.469,-1.3337044,-9.590903699999998,0.9414384,-0.009,0.003,-0.013
390926.508,-1.30428445,-9.6889702,0.8924051499999999,-0.002,-0.033,-0.026
390926.548,-1.2552512,-9.73800345,0.99047165,-0.011,0.018,0.01
390926.588,-1.3337044,-9.5712904,0.9022118,-0.007,0.03,-0.01
390926.628,-1.3337044,-9.69877685,0.9022118,-0.017,0.0,-0.013
390926.668,-1.3337044,-9.7085835,0.9218251,-0.019,-0.007,-0.01
390926.708,-1.2552512,-9.6693569,0.9610517,-0.009,-0.011,-0.002
390926.748,-1.2356379,-9.65955025,0.9218251,-0.01,0.022,0.003
390926.788,-1.3140911,-9.69877685,0.8924051499999999,-0.023,0.03,-0.023
390926.828,-1.32389775,-9.6889702,0.97085835,-0.012,0.019,-0.023
390926.868,-1.36312435,-9.69877685,0.91201845,-0.003,0.01,-0.007
390926.908,-1.3533177,-9.6497436,0.8727918499999999,-0.005,-0.02,-0.007
390926.948,-1.30428445,-9.7085835,0.9022118,-0.009,-0.026,-0.011
390926.988,-1.26505785,-9.7281968,0.95124505,-0.006,-0.015,-0.016
390927.028,-1.30428445,-9.56148375,0.8924051499999999,-0.005,-0.019,-0.026
390927.068,-1.26505785,-9.8262633,0.8727918499999999,-0.003,-0.043,-0.018
390927.108,-1.1964112999999998,-9.6693569,0.9610517,-0.01,0.014,0.0
390927.148,-1.30428445,-9.60071035,0.8825985,-0.01,0.002,-0.033
390927.188,-1.2944778,-9.67916355,0.8727918499999999,-0.009,-0.037,-0.03
390927.228,-1.2356379,-9.7281968,0.8727918499999999,-0.007,-0.031,-0.0
390927.268,-1.16699135,-9.6497436,0.9610517,-0.016,0.004,-0.007
390927.308,-1.26505785,-9.65955025,0.8629851999999999,-0.018,0.002,-0.032
390927.348,-1.24544455,-9.79684335,0.8727918499999999,-0.014,-0.028,-0.019
390927.388,-1.1571847,-9.63993695,0.97085835,-0.013,-0.003,-0.017
390927.428,-1.2160246,-9.6889702,0.9022118,-0.01,0.03,-0.016
390927.468,-1.2748645,-9.65955025,0.83356525,-0.018,0.016,-0.011
390927.508,-1.2552512,-9.7281968,0.8825985,-0.017,-0.002,-0.018
390927.547,-1.1767979999999998,-9.71839015,0.91201845,-0.006,-0.017,-0.011
390927.587,-1.16699135,-9.65955025,0.8924051499999999,-0.015,0.005,-0.016
390927.627,-1.20621795,-9.67916355,0.83356525,-0.013,0.001,-0.034
390927.667,-1.24544455,-9.65955025,0.8531785499999999,-0.022,0.0,-0.026
390927.707,-1.1866046499999998,-9.7870367,0.8825985,-0.012,-0.019,-0.006
390927.747,-1.16699135,-9.6889702,0.91201845,-0.013,0.021,-0.0
390927.787,-1.20621795,-9.6889702,0.8629851999999999,-0.008,-0.004,-0.016
390927.827,-1.1866046499999998,-9.67916355,0.8433718999999998,-0.015,0.001,-0.001
390927.867,-1.1767979999999998,-9.71839015,0.8531785499999999,-0.014,-0.008,-0.003
390927.907,-1.1571847,-9.77723005,0.8924051499999999,-0.012,0.008,-0.004
390927.947,-1.1964112999999998,-9.6693569,0.91201845,-0.01,0.017,-0.016
390927.987,-1.2552512,-9.62032365,0.8433718999999998,-0.002,-0.019,-0.023
390928.027,-1.2748645,-9.77723005,0.81395195,-0.016,-0.053,-0.005
390928.067,-1.2944778,-9.79684335,0.8825985,0.001,-0.044,-0.007
390928.107,-1.1866046499999998,-9.67916355,0.8924051499999999,0.018,-0.074,0.035
390928.147,-1.24544455,-9.77723005,0.7551120499999999,0.013,-0.11,0.008
390928.187,-1.06892485,-9.7085835,0.83356525,0.022,-0.171,-0.018
390928.227,-0.9610517,-9.7478101,0.8924051499999999,0.015,-0.103,-0.001
390928.267,-0.97085835,-9.7674234,0.8433718999999998,0.019,-0.075,-0.005
390928.307,-0.8924051499999999,-9.6889702,0.9414384,0.019,-0.03,-0.022
390928.347,-0.9218251,-9.6693569,0.9022118,0.02,0.0,-0.032
390928.386,-0.99047165,-9.69877685,0.97085835,0.004,0.045,-0.074
390928.426,-1.0983448,-9.7085835,0.95124505,0.004,0.072,-0.079
390928.466,-1.1571847,-9.610517,0.8924051499999999,0.01,0.068,-0.036
390928.506,-1.22583125,-9.7085835,0.8629851999999999,-0.003,0.044,-0.03
390928.546,-1.1964112999999998,-9.67916355,0.8825985,-0.011,-0.007,-0.038
390928.585,-1.04931155,-9.65955025,1.06892485,-0.007,0.004,0.001
390928.625,-1.04931155,-9.67916355,0.95124505,-0.009,0.046,0.018
390928.665,-1.0983448,-9.6693569,0.97085835,-0.016,0.053,0.011
390928.705,-1.14737805,-9.63993695,0.9218251,-0.023,0.062,0.017
390928.745,-1.2356379,-9.69877685,0.9022118,-0.028,0.031,-0.005
390928.785,-1.22583125,-9.75761675,0.9022118,-0.028,-0.013,-0.002
390928.825,-1.1571847,-9.7085835,0.95124505,-0.023,-0.033,0.022
390928.865,-1.1179581,-9.6889702,0.95124505,-0.019,-0.025,0.031
390928.905,-1.1179581,-9.75761675,0.95124505,-0.015,-0.009,0.022
390928.945,-1.12776475,-9.73800345,0.93163175,-0.008,-0.01,0.022
390928.985,-1.1866046499999998,-9.67916355,0.8531785499999999,-0.005,-0.034,0.004
390929.025,-1.14737805,-9.7085835,0.8629851999999999,-0.008,-0.072,-0.005
390929.065,-1.0983448,-9.73800345,0.8727918499999999,-0.011,-0.07,0.003
390929.105,-1.0591182,-9.6889702,0.9022118,-0.01,-0.056,0.005
390929.145,-1.04931155,-9.6889702,0.9022118,-0.014,-0.034,-0.009
390929.185,-1.0395048999999998,-9.7085835,0.9414384,-0.01,-0.007,-0.002
390929.225,-1.10815145,-9.7478101,0.9218251,-0.013,0.047,0.018
390929.265,-1.2160246,-9.7281968,0.8629851999999999,-0.008,0.036,0.019
390929.305,-1.20621795,-9.63993695,0.91201845,0.001,0.0,0.012
390929.345,-1.2160246,-9.69877685,0.8433718999999998,-0.004,-0.027,0.001
390929.385,-1.12776475,-9.7674234,0.91201845,-0.011,-0.042,0.01
390929.425,-1.0983448,-9.6497436,0.9414384,-0.006,-0.019,0.012
390929.465,-1.06892485,-9.65955025,0.9414384,-0.004,0.01,0.012
390929.505,-1.1375714,-9.6693569,0.8825985,-0.011,0.039,0.015
390929.545,-1.2160246,-9.7281968,0.91201845,-0.016,0.051,0.006
390929.585,-1.24544455,-9.7281968,0.93163175,-0.007,0.038,0.012
390929.625,-1.2748645,-9.73800345,0.8924051499999999,-0.001,0.021,0.023
390929.664,-1.24544455,-9.62032365,0.8825985,-0.002,-0.016,0.013
390929.704,-1.20621795,-9.7085835,0.8727918499999999,-0.003,-0.011,0.012
390929.744,-1.1866046499999998,-9.7281968,0.93163175,-0.004,-0.007,0.006
390929.784,-1.1964112999999998,-9.6301303,0.97085835,-0.003,0.028,0.006
390929.824,-1.30428445,-9.71839015,0.8629851999999999,-0.006,0.022,0.008
390929.864,-1.32389775,-9.63993695,0.8629851999999999,-0.007,0.003,0.007
390929.904,-1.2944778,-9.7281968,0.8825985,-0.008,-0.027,0.007
390929.944,-1.22583125,-9.7085835,0.9610517,-0.008,-0.021,0.004
390929.984,-1.28467115,-9.7478101,0.8924051499999999,-0.003,-0.021,-0.011
390930.024,-1.2748645,-9.65955025,0.91201845,0.007,-0.03,-0.007
390930.064,-1.2748645,-9.6497436,0.8629851999999999,0.003,-0.033,-0.002
390930.104,-1.2160246,-9.75761675,0.95124505,-0.006,-0.016,-0.003
390930.143,-1.26505785,-9.65955025,0.9022118,0.005,-0.001,-0.002
390930.183,-1.2356379,-9.6497436,0.8531785499999999,0.002,-0.013,0.007
390930.223,-1.2160246,-9.6889702,0.8825985,-0.007,0.001,0.005
390930.263,-1.1964112999999998,-9.71839015,0.95124505,-0.006,0.034,0.003
390930.303,-1.28467115,-9.6497436,0.8727918499999999,-0.004,0.034,0.005
390930.343,-1.32389775,-9.71839015,0.83356525,-0.006,0.011,0.001
390930.383,-1.26505785,-9.67916355,0.9414384,-0.007,-0.002,-0.006
390930.423,-1.26505785,-9.6693569,0.9610517,-0.005,0.026,-0.007
390930.463,-1.36312435,-9.65955025,0.8433718999999998,-0.007,0.025,0.006
390930.503,-1.3533177,-9.6889702,0.8825985,-0.009,0.003,0.009
390930.543,-1.3140911,-9.6889702,0.93163175,-0.003,-0.005,0.009
390930.583,-1.28467115,-9.65955025,0.9218251,-0.002,-0.021,0.002
390930.623,-1.2944778,-9.6497436,0.8924051499999999,-0.008,-0.015,-0.003
390930.663,-1.2944778,-9.6889702,0.9218251,-0.011,-0.006,-0.004
390930.703,-1.32389775,-9.67916355,0.93163175,-0.006,-0.002,0.003
390930.742,-1.3337044,-9.67916355,0.9414384,-0.007,-0.004,0.005
390930.782,-1.34351105,-9.69877685,0.8924051499999999,-0.004,-0.021,-0.002
390930.822,-1.28467115,-9.6693569,0.9022118,-0.006,-0.039,-0.002
390930.862,-1.2356379,-9.67916355,0.93163175,-0.01,-0.017,-0.003
390930.902,-1.24544455,-9.67916355,0.9610517,-0.013,0.01,-0.008
390930.942,-1.3140911,-9.6693569,0.8825985,-0.009,0.008,-0.006
390930.982,-1.3140911,-9.7478101,0.8924051499999999,-0.008,-0.003,-0.01
390931.022,-1.26505785,-9.6889702,0.91201845,-0.005,-0.018,-0.019
390931.062,-1.22583125,-9.60071035,0.9414384,-0.005,-0.003,-0.008
390931.102,-1.2944778,-9.69877685,0.8727918499999999,-0.012,0.025,-0.01
390931.142,-1.30428445,-9.7281968,0.9414384,-0.01,0.038,-0.006
390931.182,-1.36312435,-9.65955025,0.8727918499999999,-0.002,0.014,0.001
390931.222,-1.32389775,-9.65955025,0.8629851999999999,-0.003,-0.032,-0.006
390931.262,-1.22583125,-9.69877685,0.9218251,-0.006,-0.011,-0.003
390931.302,-1.24544455,-9.6497436,0.93163175,-0.012,0.037,-0.002
390931.342,-1.4023509499999998,-9.6889702,0.8433718999999998,-0.01,0.019,-0.005
390931.382,-1.36312435,-9.69877685,0.8727918499999999,-0.005,-0.027,0.0
390931.422,-1.28467115,-9.65955025,0.9218251,-0.006,-0.035,-0.002
390931.462,-1.2552512,-9.6693569,0.9022118,-0.006,-0.022,-0.004
390931.502,-1.28467115,-9.6889702,0.8924051499999999,-0.012,-0.004,-0.004
390931.542,-1.2944778,-9.7085835,0.91201845,-0.011,-0.005,-0.008
390931.582,-1.30428445,-9.6497436,0.9022118,-0.008,-0.023,-0.005
390931.622,-1.2552512,-9.7281968,0.8825985,-0.008,-0.02,-0.003
390931.662,-1.2552512,-9.69877685,0.9022118,-0.011,-0.001,-0.015
390931.702,-1.2552512,-9.6497436,0.9414384,-0.006,-0.001,-0.013
390931.742,-1.2944778,-9.7085835,0.8629851999999999,-0.005,0.01,0.003
390931.781,-1.28467115,-9.69877685,0.9022118,-0.004,0.013,0.004
390931.821,-1.2944778,-9.69877685,0.91201845,0.001,0.013,0.001
390931.861,-1.32389775,-9.6693569,0.8825985,0.001,0.005,-0.002
390931.901,-1.2944778,-9.67916355,0.8433718999999998,0.001,-0.028,-0.007
390931.941,-1.1964112999999998,-9.6497436,0.95124505,-0.009,0.008,-0.005
390931.981,-1.32389775,-9.7085835,0.8629851999999999,-0.011,0.026,-0.009
390932.021,-1.30428445,-9.65955025,0.91201845,-0.006,0.011,0.003
390932.061,-1.3337044,-9.67916355,0.8237586,-0.009,-0.005,-0.001
390932.101,-1.26505785,-9.7281968,0.91201845,-0.013,-0.006,-0.002
390932.141,-1.3140911,-9.7085835,0.95124505,-0.007,0.015,-0.017
390932.181,-1.3827376499999997,-9.67916355,0.8727918499999999,0.003,-0.006,-0.011
390932.221,-1.34351105,-9.62032365,0.8237586,0.0,-0.053,-0.001
390932.261,-1.2356379,-9.75761675,0.8531785499999999,-0.007,-0.057,-0.009
390932.301,-1.1179581,-9.67916355,1.0198915999999998,-0.006,-0.009,-0.009
390932.341,-1.24544455,-9.63993695,0.91201845,-0.001,0.049,0.002
390932.381,-1.372931,-9.65955025,0.7943386499999999,-0.008,0.038,0.006
390932.421,-1.36312435,-9.7478101,0.8825985,-0.012,0.003,0.006
390932.461,-1.2748645,-9.6889702,0.9610517,0.001,-0.009,0.01
390932.501,-1.28467115,-9.6497436,0.8629851999999999,-0.0,-0.01,0.004
390932.541,-1.2944778,-9.6889702,0.83356525,-0.006,-0.021,-0.015
390932.581,-1.2356379,-9.69877685,0.93163175,-0.01,0.002,0.002
390932.621,-1.2944778,-9.7085835,0.9022118,-0.007,0.008,0.001
390932.661,-1.2944778,-9.65955025,0.9218251,-0.006,0.008,0.002
390932.701,-1.3337044,-9.67916355,0.8629851999999999,-0.006,0.007,-0.004
390932.741,-1.34351105,-9.6889702,0.91201845,-0.006,-0.003,-0.004
390932.781,-1.3337044,-9.67916355,0.9218251,-0.003,-0.008,0.0
390932.82,-1.3140911,-9.6497436,0.93163175,-0.002,-0.014,-0.006
390932.86,-1.34351105,-9.6497436,0.8629851999999999,-0.005,-0.014,-0.003
390932.9,-1.30428445,-9.7281968,0.95124505,-0.011,0.001,-0.004
390932.94,-1.2944778,-9.65955025,0.980665,-0.007,0.032,0.002
390932.98,-1.4219642499999998,-9.62032365,0.8727918499999999,-0.011,0.016,0.003
390933.02,-1.4709975,-9.6497436,0.83356525,-0.007,-0.044,-0.01
390933.06,-1.2748645,-9.7281968,0.95124505,-0.004,-0.08,0.014
390933.1,-1.1571847,-9.6889702,0.9414384,-0.007,-0.04,0.012
390933.14,-1.16699135,-9.6889702,0.97085835,-0.018,0.013,-0.011
390933.18,-1.32389775,-9.6889702,0.8924051499999999,-0.016,0.042,-0.017
390933.22,-1.4121575999999998,-9.65955025,0.8629851999999999,-0.009,0.001,-0.007
390933.26,-1.36312435,-9.65955025,0.83356525,-0.002,-0.043,-0.001
390933.3,-1.1964112999999998,-9.7085835,0.93163175,-0.008,-0.036,-0.003
390933.34,-1.22583125,-9.62032365,0.91201845,-0.016,0.025,-0.008
390933.38,-1.34351105,-9.69877685,0.8727918499999999,-0.025,0.052,-0.014
390933.42,-1.44157755,-9.73800345,0.8924051499999999,-0.018,0.013,-0.023
390933.46,-1.4317708999999998,-9.7281968,0.9218251,0.001,-0.027,-0.017
390933.5,-1.3827376499999997,-9.63993695,0.8629851999999999,0.011,-0.064,-0.016
390933.54,-1.2944778,-9.7478101,0.8433718999999998,0.005,-0.068,-0.022
390933.58,-1.20621795,-9.63993695,0.9610517,0.005,-0.032,-0.008
390933.62,-1.2552512,-9.65955025,0.91201845,0.005,0.01,-0.005
390933.66,-1.3140911,-9.6693569,0.8629851999999999,0.0,0.017,0.01
390933.7,-1.32389775,-9.610517,0.8825985,-0.009,0.007,0.005
390933.74,-1.30428445,-9.7085835,0.91201845,-0.01,-0.009,-0.011
390933.78,-1.3533177,-9.67916355,0.8825985,-0.013,-0.006,0.002
390933.82,-1.28467115,-9.6889702,0.9022118,-0.01,-0.026,-0.003
390933.859,-1.24544455,-9.67916355,0.91201845,-0.01,-0.011,0.003
390933.899,-1.24544455,-9.71839015,0.9218251,-0.007,0.007,-0.006
390933.939,-1.2944778,-9.7085835,0.91201845,-0.002,0.022,-0.007
390933.979,-1.3337044,-9.67916355,0.8727918499999999,0.001,0.009,-0.006
390934.019,-1.32389775,-9.6301303,0.8924051499999999,-0.001,-0.011,-0.013
390934.059,-1.34351105,-9.69877685,0.8531785499999999,-0.006,-0.013,-0.018
390934.099,-1.2944778,-9.7281968,0.8531785499999999,0.003,-0.035,-0.006
390934.139,-1.22583125,-9.56148375,0.93163175,-0.009,-0.008,0.007
390934.179,-1.22583125,-9.7085835,0.8629851999999999,-0.022,-0.007,-0.029
390934.219,-1.28467115,-9.7085835,0.980665,-0.025,0.04,-0.014
390934.259,-1.4317708999999998,-9.6889702,0.8629851999999999,-0.011,0.03,-0.007
390934.299,-1.4023509499999998,-9.65955025,0.8433718999999998,-0.009,-0.032,0.002
390934.339,-1.2552512,-9.65955025,0.8825985,-0.014,-0.071,0.0
390934.379,-1.1375714,-9.69877685,0.9414384,-0.016,-0.021,-0.009
390934.419,-1.22583125,-9.67916355,0.9022118,-0.023,0.032,-0.007
390934.459,-1.3533177,-9.79684335,0.8924051499999999,-0.019,0.038,-0.026
390934.499,-1.4023509499999998,-9.6693569,0.91201845,0.005,-0.004,-0.013
390934.539,-1.34351105,-9.6693569,0.8924051499999999,0.012,-0.059,-0.001
390934.579,-1.22583125,-9.69877685,0.8924051499999999,0.014,-0.072,-0.021
390934.619,-1.12776475,-9.75761675,1.0002783,0.009,-0.018,-0.009
390934.659,-1.2356379,-9.62032365,0.8825985,0.005,0.022,-0.013
390934.699,-1.2748645,-9.65955025,0.8727918499999999,-0.001,-0.003,-0.013
390934.739,-1.2748645,-9.73800345,0.8629851999999999,-0.006,-0.013,-0.01
390934.779,-1.1964112999999998,-9.67916355,0.9610517,-0.008,-0.014,-0.019
390934.819,-1.20621795,-9.62032365,0.9218251,-0.007,-0.006,-0.015
390934.859,-1.22583125,-9.6889702,0.8825985,-0.015,0.003,-0.013
390934.899,-1.2552512,-9.7085835,0.9022118,-0.017,0.014,-0.006
390934.938,-1.2160246,-9.65955025,0.9414384,-0.015,0.008,-0.005
390934.978,-1.2552512,-9.7281968,0.8825985,-0.011,-0.005,-0.017
390935.018,-1.16699135,-9.63993695,0.93163175,-0.006,0.0,0.004
390935.058,-1.20621795,-9.7085835,0.83356525,-0.014,0.026,0.007
390935.098,-1.1866046499999998,-9.65955025,0.93163175,-0.014,0.025,-0.013
390935.138,-1.28467115,-9.7870367,0.9218251,-0.013,0.042,-0.01
390935.178,-1.32389775,-9.7085835,0.8924051499999999,0.004,0.002,-0.011
390935.218,-1.26505785,-9.6693569,0.9022118,0.008,-0.035,0.003
390935.258,-1.1866046499999998,-9.6497436,0.8825985,0.002,-0.036,-0.006
390935.298,-1.1571847,-9.6889702,0.91201845,-0.002,-0.006,-0.011
390935.338,-1.2356379,-9.7478101,0.8924051499999999,-0.007,0.011,-0.015
390935.378,-1.24544455,-9.6497436,0.93163175,-0.004,-0.004,-0.014
390935.418,-1.2748645,-9.63993695,0.8433718999999998,-0.007,-0.023,-0.002
390935.458,-1.22583125,-9.71839015,0.8825985,-0.017,-0.012,0.001
390935.498,-1.22583125,-9.73800345,0.9414384,-0.014,-0.003,0.0
390935.538,-1.2356379,-9.71839015,0.9218251,-0.001,-0.013,0.001
390935.578,-1.2160246,-9.6301303,0.8825985,0.0,-0.032,-0.005
390935.618,-1.1571847,-9.7281968,0.8727918499999999,-0.008,-0.016,0.0
390935.658,-1.1866046499999998,-9.6889702,0.91201845,-0.009,0.015,0.003
390935.698,-1.1767979999999998,-9.7085835,0.93163175,-0.003,0.016,0.003
390935.738,-1.20621795,-9.7281968,0.9022118,-0.003,0.016,0.002
390935.778,-1.22583125,-9.75761675,0.9218251,0.005,0.03,-0.012
390935.818,-1.26505785,-9.6693569,0.9218251,0.01,0.018,-0.005
390935.858,-1.2944778,-9.65955025,0.8825985,0.011,-0.006,-0.007
390935.898,-1.2160246,-9.7478101,0.91201845,0.014,-0.029,0.004
390935.938,-1.2160246,-9.6693569,0.95124505,0.003,0.007,-0.013
390935.977,-1.2552512,-9.63993695,0.95124505,0.005,0.002,-0.014
390936.017,-1.3337044,-9.69877685,0.8924051499999999,0.002,0.002,-0.004
390936.057,-1.3337044,-9.67916355,0.8727918499999999,0.003,-0.045,-0.003
390936.097,-1.2160246,-9.6497436,0.95124505,0.002,-0.053,0.012
390936.137,-1.1866046499999998,-9.6889702,0.9610517,-0.0,-0.037,0.006
390936.177,-1.1866046499999998,-9.67916355,0.980665,-0.003,-0.006,0.005
390936.217,-1.24544455,-9.6301303,0.9414384,-0.009,0.002,0.013
390936.257,-1.28467115,-9.7281968,0.9218251,-0.011,-0.027,-0.008
390936.297,-1.2356379,-9.71839015,1.0198915999999998,-0.003,-0.028,0.002
390936.337,-1.2356379,-9.69877685,0.93163175,0.003,-0.032,0.007
390936.377,-1.16699135,-9.6497436,0.9414384,-0.004,-0.03,0.0
390936.417,-1.1571847,-9.6889702,1.0002783,-0.019,0.01,-0.002
390936.457,-1.22583125,-9.69877685,0.9610517,-0.014,0.03,0.006
390936.497,-1.2748645,-9.69877685,0.97085835,-0.015,0.043,0.003
390936.537,-1.36312435,-9.6693569,0.980665,-0.015,0.031,-0.007
390936.577,-1.3827376499999997,-9.7281968,0.97085835,0.002,0.007,0.002
390936.617,-1.36312435,-9.67916355,0.8924051499999999,0.009,-0.039,0.016
390936.657,-1.2356379,-9.63993695,0.980665,0.006,-0.04,0.011
390936.697,-1.24544455,-9.67916355,0.9218251,0.004,-0.019,0.006
390936.737,-1.2160246,-9.6889702,0.99047165,0.0,-0.005,0.001
390936.777,-1.28467115,-9.6301303,0.91201845,0.0,0.006,0.005
390936.817,-1.2748645,-9.65955025,0.9218251,-0.009,-0.011,-0.002
390936.857,-1.2552512,-9.590903699999998,0.9610517,-0.018,0.004,-0.005
390936.897,-1.28467115,-9.71839015,0.95124505,-0.022,0.014,0.003
390936.937,-1.3337044,-9.6693569,0.9218251,-0.025,0.019,-0.002
390936.977,-1.3337044,-9.69877685,0.9610517,-0.023,-0.008,-0.012
390937.016,-1.3337044,-9.6497436,0.9610517,-0.022,-0.003,-0.005
390937.056,-1.36312435,-9.7674234,0.8825985,-0.013,-0.032,-0.007
390937.096,-1.2552512,-9.67916355,1.0002783,-0.014,-0.03,-0.004
390937.136,-1.2552512,-9.6497436,0.97085835,-0.003,-0.025,-0.014
390937.176,-1.28467115,-9.71839015,0.9218251,-0.001,-0.013,-0.019
390937.216,-1.32389775,-9.71839015,0.9218251,-0.001,-0.021,-0.011
390937.256,-1.2944778,-9.6889702,0.9414384,0.009,-0.033,-0.015
390937.296,-1.2356379,-9.7085835,0.9218251,0.017,-0.064,-0.017
390937.336,-1.16699135,-9.6497436,0.97085835,0.013,-0.032,-0.009
390937.376,-1.1964112999999998,-9.6889702,0.97085835,0.011,0.018,-0.015
390937.416,-1.24544455,-9.610517,0.9414384,0.003,0.048,0.005
390937.456,-1.4121575999999998,-9.6301303,0.8825985,-0.015,0.026,-0.003
390937.496,-1.372931,-9.75761675,0.8924051499999999,0.0,-0.05,-0.028
390937.536,-1.22583125,-9.6889702,0.99047165,-0.008,-0.02,0.018
390937.576,-1.26505785,-9.5320638,0.8924051499999999,-0.015,-0.025,0.004
390937.616,-1.2160246,-9.67916355,0.9218251,-0.024,-0.015,-0.008
390937.656,-1.22583125,-9.7674234,0.9414384,-0.03,0.007,0.0
390937.696,-1.2356379,-9.69877685,1.01008495,-0.025,0.011,-0.007
390937.736,-1.2748645,-9.69877685,1.01008495,-0.011,0.006,-0.021
390937.776,-1.32389775,-9.77723005,0.9218251,0.002,0.017,0.001
390937.816,-1.2944778,-9.67916355,0.95124505,0.01,-0.003,0.017
390937.856,-1.2552512,-9.7281968,0.9610517,0.02,-0.009,0.004
390937.896,-1.1964112999999998,-9.6889702,1.01008495,0.022,-0.002,0.002
390937.936,-1.2552512,-9.67916355,0.9218251,0.017,0.019,0.001
390937.976,-1.26505785,-9.67916355,0.91201845,0.013,0.004,-0.002
390938.016,-1.2552512,-9.6497436,0.97085835,0.006,0.012,-0.002
390938.057,-1.2748645,-9.6693569,0.9610517,0.005,-0.001,-0.019
390938.096,-1.26505785,-9.6301303,0.99047165,-0.0,-0.01,-0.017
390938.136,-1.3140911,-9.7085835,0.95124505,0.002,-0.026,-0.035
390938.176,-1.24544455,-9.71839015,1.0198915999999998,0.008,-0.036,-0.033
390938.216,-1.2748645,-9.63993695,0.9414384,0.005,-0.035,-0.01
390938.256,-1.2356379,-9.6889702,0.97085835,0.001,-0.077,-0.039
390938.296,-1.12776475,-9.60071035,1.0983448,-0.004,-0.03,-0.039
390938.336,-1.1866046499999998,-9.6889702,1.01008495,-0.007,0.007,0.001
390938.376,-1.2356379,-9.6693569,1.0296982499999998,-0.014,0.039,0.011
390938.416,-1.2356379,-9.6301303,1.0395048999999998,-0.013,0.026,-0.003
390938.456,-1.22583125,-9.69877685,1.0591182,-0.014,0.046,0.013
390938.496,-1.26505785,-9.65955025,1.01008495,-0.015,0.044,0.012
390938.536,-1.24544455,-9.62032365,1.0002783,-0.018,0.033,0.018
390938.576,-1.24544455,-9.6693569,0.980665,-0.025,0.032,0.01
390938.616,-1.22583125,-9.7478101,1.0395048999999998,-0.025,0.047,0.011
390938.656,-1.2552512,-9.71839015,1.0198915999999998,-0.017,0.062,0.019
390938.696,-1.2552512,-9.6301303,1.0002783,-0.009,0.04,0.002
390938.736,-1.2944778,-9.6889702,0.9610517,-0.015,0.027,-0.015
390938.776,-1.36312435,-9.67916355,0.9414384,-0.011,0.008,-0.039
390938.816,-1.3925442999999995,-9.6693569,0.9414384,0.002,0.045,-0.019
390938.856,-1.44157755,-9.54187045,0.7649187,-0.003,-0.021,0.03
390938.896,-1.2356379,-9.7478101,0.9022118,-0.036,-0.075,0.064
390938.936,-1.1866046499999998,-9.73800345,1.0591182,-0.047,-0.067,-0.025
390938.976,-1.16699135,-9.7478101,1.0787315,-0.02,-0.062,-0.066
390939.016,-1.16699135,-9.610517,0.99047165,0.001,-0.01,0.015
390939.056,-1.4023509499999998,-9.65955025,0.6962721499999999,-0.024,0.021,-0.018
390939.096,-1.34351105,-9.8262633,0.97085835,-0.038,-0.033,-0.044
390939.136,-1.2944778,-9.6301303,1.0002783,-0.011,-0.079,-0.001
390939.175,-1.2356379,-9.610517,0.91201845,-0.004,-0.027,0.008
390939.215,-1.20621795,-9.6693569,0.83356525,-0.026,0.013,0.006
390939.255,-1.22583125,-9.5712904,0.9022118,-0.04,0.049,-0.004
390939.295,-1.3337044,-9.7870367,0.8825985,-0.03,-0.025,-0.026
390939.335,-1.22583125,-9.75761675,0.95124505,-0.013,-0.04,-0.001
390939.375,-1.1767979999999998,-9.7478101,0.8924051499999999,-0.001,-0.017,0.0
390939.415,-1.1179581,-9.610517,0.8825985,0.001,0.004,-0.005
390939.455,-1.0983448,-9.4928372,0.9218251,-0.024,0.091,0.012
390939.495,-1.2748645,-9.69877685,0.7943386499999999,-0.043,0.106,0.016
390939.535,-1.2160246,-9.65955025,0.93163175,-0.046,0.121,0.056
390939.575,-1.3827376499999997,-9.75761675,0.8727918499999999,-0.05,0.169,0.037
390939.615,-1.5298374,-9.81645665,0.8237586,-0.043,0.093,-0.027
390939.655,-1.59848395,-9.855683249999998,0.8237586,-0.015,-0.03,-0.044
390939.695,-1.44157755,-9.65955025,0.81395195,0.019,-0.15,-0.04
390939.735,-1.2552512,-9.6889702,0.8433718999999998,0.019,-0.141,-0.042
390939.775,-1.22583125,-9.77723005,0.8041453,0.016,-0.081,-0.021
390939.815,-1.04931155,-9.6301303,0.83356525,0.033,-0.068,0.054
390939.855,-0.99047165,-9.610517,0.8924051499999999,0.017,0.057,0.09
390939.895,-1.1767979999999998,-9.69877685,0.77472535,0.004,0.101,0.018
390939.935,-1.36312435,-9.81645665,0.83356525,-0.004,0.07,-0.058
390939.975,-1.53964405,-9.67916355,0.8727918499999999,0.002,-0.031,-0.106
390940.015,-1.4513842,-9.67916355,0.67665885,0.019,-0.165,-0.059
390940.055,-1.2160246,-9.590903699999998,0.8237586,0.007,-0.145,0.001
390940.095,-1.01008495,-9.52225715,0.8041453,-0.021,-0.059,0.009
390940.135,-0.93163175,-9.4928372,0.9022118,-0.049,0.06,0.071
390940.175,-1.2160246,-9.6693569,0.784532,-0.092,0.135,0.059
390940.214,-1.3533177,-10.071429549999998,1.0198915999999998,-0.106,0.167,-0.001
390940.254,-1.6082906,-9.8262633,1.04931155,-0.023,0.125,-0.004
390940.294,-1.7063570999999995,-9.71839015,0.8433718999999998,0.045,-0.039,0.0
390940.334,-1.5102240999999998,-9.71839015,0.61781895,0.065,-0.244,-0.021
390940.374,-1.0591182,-9.6497436,0.8531785499999999,0.04,-0.236,-0.016
390940.414,-0.8924051499999999,-9.60071035,0.8924051499999999,0.011,-0.113,-0.018
390940.454,-0.93163175,-9.62032365,0.97085835,-0.012,0.037,-0.021
390940.494,-1.24544455,-9.6693569,0.8531785499999999,-0.017,0.117,-0.024
390940.534,-1.4808041499999998,-9.8458766,0.8924051499999999,-0.003,0.067,-0.062
390940.574,-1.4906107999999998,-9.7281968,0.9022118,0.023,-0.015,-0.042
390940.614,-1.32389775,-9.54187045,0.77472535,0.031,-0.123,0.013
390940.654,-1.01008495,-9.4732239,0.8629851999999999,0.001,-0.084,0.037
390940.694,-0.97085835,-9.7281968,1.0395048999999998,-0.029,0.072,0.025
390940.734,-1.26505785,-9.875296549999998,1.10815145,-0.022,0.217,0.017
390940.774,-1.6279039,-9.71839015,0.8433718999999998,0.025,0.144,0.012
390940.814,-1.63771055,-9.60071035,0.7060787999999999,0.02,-0.064,-0.017
390940.854,-1.2944778,-9.63993695,0.8041453,0.009,-0.188,-0.002
390940.894,-1.0002783,-9.67916355,1.0198915999999998,-0.009,-0.087,0.012
390940.934,-1.0395048999999998,-9.67916355,0.95124505,-0.015,0.079,0.015
390940.974,-1.28467115,-9.6693569,0.81395195,-0.023,0.097,0.003
390941.014,-1.3827376499999997,-9.6497436,0.7943386499999999,-0.022,0.033,-0.007
390941.054,-1.3337044,-9.71839015,0.8237586,-0.015,-0.02,-0.004
390941.093,-1.2552512,-9.67916355,0.91201845,-0.015,-0.015,0.001
390941.133,-1.2552512,-9.7674234,0.8237586,-0.013,0.02,0.004
390941.173,-1.28467115,-9.65955025,0.8629851999999999,-0.014,0.017,-0.018
390941.213,-1.2748645,-9.71839015,0.91201845,-0.006,0.014,-0.026
390941.252,-1.32389775,-9.69877685,0.9218251,0.011,0.006,-0.009
390941.292,-1.36312435,-9.80665,0.8825985,0.028,0.032,-0.006
390941.332,-1.30428445,-9.60071035,0.97085835,0.047,0.043,0.025
390941.372,-1.3533177,-9.52225715,0.8924051499999999,0.041,0.049,0.019
390941.412,-1.52003075,-9.7674234,0.7943386499999999,0.032,-0.05,-0.049
390941.452,-1.44157755,-9.7674234,0.8629851999999999,0.036,-0.097,-0.073
390941.492,-1.28467115,-9.69877685,0.83356525,0.037,-0.194,-0.022
390941.532,-1.0002783,-9.5320638,0.980665,0.009,-0.142,0.003
390941.572,-0.95124505,-9.62032365,1.06892485,-0.025,-0.002,0.006
390941.612,-1.12776475,-9.71839015,1.12776475,-0.034,0.124,0.019
390941.652,-1.4121575999999998,-9.75761675,0.93163175,-0.006,0.085,0.043
390941.692,-1.3337044,-9.60071035,0.97085835,0.008,-0.011,0.032
390941.732,-1.2356379,-9.67916355,0.980665,0.002,-0.012,-0.005
390941.772,-1.24544455,-9.71839015,1.0787315,-0.008,0.026,-0.013
390941.812,-1.3827376499999997,-9.6693569,0.99047165,0.001,0.032,0.005
390941.852,-1.372931,-9.69877685,0.93163175,0.009,-0.006,0.012
390941.892,-1.26505785,-9.69877685,1.0296982499999998,-0.002,-0.007,0.003
390941.932,-1.2944778,-9.58109705,1.0296982499999998,-0.003,0.034,0.007
390941.972,-1.3827376499999997,-9.69877685,0.9610517,-0.003,0.029,-0.004
390942.012,-1.4023509499999998,-9.63993695,0.95124505,-0.007,0.02,0.01
390942.052,-1.3925442999999995,-9.6301303,0.9414384,-0.012,-0.015,0.001
390942.093,-1.372931,-9.6889702,0.97085835,-0.01,-0.04,-0.014
390942.133,-1.2748645,-9.6497436,1.0198915999999998,-0.005,-0.036,-0.003
390942.173,-1.30428445,-9.65955025,0.97085835,-0.009,0.005,-0.007
390942.213,-1.34351105,-9.6497436,0.9414384,-0.01,-0.0,-0.002
390942.253,-1.3337044,-9.6889702,1.0002783,-0.015,0.017,0.011
390942.292,-1.3533177,-9.6889702,1.0198915999999998,-0.01,0.013,-0.002
390942.332,-1.3925442999999995,-9.6497436,0.980665,-0.009,0.011,0.002
390942.372,-1.3925442999999995,-9.67916355,0.97085835,-0.009,-0.009,-0.002
390942.412,-1.36312435,-9.63993695,0.9610517,-0.005,-0.013,-0.003
390942.452,-1.3337044,-9.69877685,0.99047165,-0.01,-0.011,-0.003
390942.492,-1.3533177,-9.65955025,1.0002783,-0.006,-0.008,-0.017
390942.532,-1.32389775,-9.62032365,1.0002783,-0.004,-0.012,-0.014
390942.572,-1.3827376499999997,-9.6497436,0.91201845,-0.011,0.003,-0.012
390942.612,-1.3337044,-9.6497436,1.0002783,-0.017,-0.006,-0.004
390942.652,-1.36312435,-9.71839015,1.0002783,-0.013,0.01,-0.005
390942.692,-1.36312435,-9.6301303,0.95124505,-0.01,-0.015,-0.013
390942.732,-1.3533177,-9.6693569,0.93163175,-0.018,-0.029,-0.014
390942.772,-1.2748645,-9.67916355,0.99047165,-0.017,-0.023,-0.015
390942.812,-1.2944778,-9.67916355,0.980665,-0.018,-0.011,-0.011
390942.852,-1.2944778,-9.7085835,0.95124505,-0.016,0.004,-0.012
390942.892,-1.30428445,-9.6889702,0.91201845,-0.014,-0.01,-0.013
390942.932,-1.2356379,-9.6693569,0.95124505,-0.013,-0.017,-0.014
390942.972,-1.2160246,-9.69877685,0.9218251,-0.015,0.002,-0.009
390943.012,-1.22583125,-9.67916355,0.8924051499999999,-0.012,0.005,-0.009
390943.052,-1.2552512,-9.75761675,0.9218251,-0.018,0.033,-0.019
390943.092,-1.2944778,-9.67916355,0.93163175,-0.011,0.033,-0.016
390943.132,-1.3140911,-9.60071035,0.91201845,-0.004,0.01,-0.006
390943.172,-1.30428445,-9.71839015,0.9022118,-0.008,0.009,0.003
390943.212,-1.30428445,-9.71839015,0.9022118,-0.007,0.018,0.01
390943.252,-1.2748645,-9.6301303,0.9414384,-0.004,-0.008,-0.006
390943.292,-1.2944778,-9.65955025,0.8924051499999999,-0.01,-0.014,-0.01
390943.332,-1.2748645,-9.6693569,0.93163175,-0.017,-0.006,-0.006
390943.371,-1.3140911,-9.6693569,0.9414384,-0.019,0.013,-0.005
390943.411,-1.36312435,-9.6889702,0.95124505,-0.015,0.015,-0.002
390943.451,-1.3827376499999997,-9.7085835,0.8924051499999999,-0.01,-0.015,0.003
390943.491,-1.30428445,-9.67916355,0.93163175,-0.007,-0.067,-0.007
390943.531,-1.2356379,-9.7085835,0.93163175,-0.005,-0.048,-0.007
390943.571,-1.1964112999999998,-9.610517,0.9218251,-0.007,-0.025,-0.0
390943.611,-1.24544455,-9.73800345,0.8727918499999999,-0.015,0.015,0.002
390943.651,-1.2552512,-9.7085835,0.97085835,-0.014,0.008,-0.004
390943.691,-1.30428445,-9.67916355,0.9218251,0.001,0.006,-0.005
390943.731,-1.32389775,-9.6693569,0.8629851999999999,-0.001,-0.004,-0.001
390943.771,-1.2944778,-9.65955025,0.9022118,-0.006,-0.005,0.008
390943.811,-1.26505785,-9.69877685,0.9610517,-0.002,0.007,0.006
390943.851,-1.30428445,-9.6889702,0.8924051499999999,-0.002,-0.0,-0.004
390943.891,-1.32389775,-9.6301303,0.8727918499999999,-0.005,-0.009,-0.006
390943.931,-1.30428445,-9.63993695,0.93163175,-0.009,-0.013,-0.004
390943.971,-1.32389775,-9.7085835,0.95124505,-0.007,0.017,-0.003
390944.011,-1.4023509499999998,-9.7085835,0.91201845,-0.007,0.009,0.005
390944.051,-1.3925442999999995,-9.6301303,0.8924051499999999,-0.0,-0.037,0.001
390944.091,-1.3140911,-9.6497436,0.91201845,-0.01,-0.025,0.01
390944.131,-1.2944778,-9.65955025,0.91201845,-0.013,-0.024,0.004
390944.171,-1.26505785,-9.69877685,0.9414384,-0.014,-0.001,-0.0
390944.211,-1.3337044,-9.69877685,0.91201845,-0.015,0.006,-0.005
390944.251,-1.3533177,-9.6497436,0.93163175,-0.01,-0.005,-0.009
390944.291,-1.36312435,-9.7085835,0.8924051499999999,-0.006,-0.018,0.003
390944.331,-1.3140911,-9.69877685,0.91201845,-0.003,-0.027,-0.001
390944.371,-1.24544455,-9.6693569,0.93163175,-0.001,-0.01,-0.012
390944.411,-1.2748645,-9.6497436,0.9218251,-0.007,0.013,-0.011
390944.45,-1.3337044,-9.69877685,0.91201845,-0.011,0.028,-0.015
390944.49,-1.4023509499999998,-9.6497436,0.91201845,-0.007,0.025,-0.019
390944.53,-1.4219642499999998,-9.71839015,0.8433718999999998,0.001,-0.024,-0.014
390944.57,-1.28467115,-9.69877685,0.93163175,0.004,-0.024,0.011
390944.61,-1.28467115,-9.58109705,0.91201845,-0.006,0.018,0.0
390944.65,-1.3337044,-9.7085835,0.8727918499999999,-0.011,0.015,-0.004
390944.69,-1.3925442999999995,-9.610517,0.8825985,-0.023,0.009,-0.013
390944.73,-1.372931,-9.7085835,0.8433718999999998,-0.015,-0.043,-0.009
390944.77,-1.26505785,-9.7085835,0.93163175,-0.025,-0.03,-0.007
390944.81,-1.26505785,-9.590903699999998,0.95124505,-0.022,-0.005,-0.022
390944.85,-1.3337044,-9.75761675,0.8433718999999998,-0.017,0.001,-0.009
390944.89,-1.3140911,-9.6889702,0.9414384,-0.018,0.002,-0.007
390944.93,-1.3533177,-9.67916355,0.8629851999999999,-0.011,0.001,-0.016
390944.97,-1.30428445,-9.7281968,0.8727918499999999,-0.011,-0.022,-0.011
390945.01,-1.26505785,-9.6693569,0.8924051499999999,-0.008,-0.009,-0.007
390945.05,-1.2356379,-9.69877685,0.91201845,-0.005,0.022,-0.013
390945.09,-1.28467115,-9.65955025,0.8727918499999999,-0.005,0.033,-0.008
390945.13,-1.34351105,-9.7281968,0.8727918499999999,-0.006,0.013,-0.015
390945.17,-1.32389775,-9.7478101,0.8629851999999999,0.007,-0.006,-0.01
390945.21,-1.22583125,-9.67916355,0.9218251,0.01,-0.006,-0.005
390945.25,-1.2748645,-9.60071035,0.8237586,0.001,-0.009,-0.023
390945.29,-1.2356379,-9.7085835,0.8825985,-0.006,-0.001,-0.017
390945.33,-1.26505785,-9.7281968,0.9022118,-0.007,0.005,-0.019
390945.37,-1.2748645,-9.6693569,0.9022118,-0.003,0.005,-0.021
390945.41,-1.28467115,-9.6693569,0.8531785499999999,-0.005,-0.007,-0.006
390945.45,-1.2356379,-9.7085835,0.8924051499999999,-0.007,-0.006,0.003
390945.489,-1.2356379,-9.7281968,0.91201845,-0.001,0.009,0.003
390945.529,-1.22583125,-9.6889702,0.8924051499999999,0.003,-0.005,-0.001
390945.569,-1.28467115,-9.71839015,0.8825985,0.001,-0.001,-0.009
390945.609,-1.3533177,-9.7870367,0.95124505,0.013,-0.012,-0.031
390945.649,-1.4219642499999998,-9.6301303,0.8629851999999999,0.036,-0.074,-0.038
390945.689,-1.2356379,-9.63993695,0.8237586,0.031,-0.146,-0.005
390945.729,-1.0395048999999998,-9.610517,0.91201845,0.001,-0.097,0.015
390945.769,-0.97085835,-9.67916355,0.980665,-0.019,0.006,0.018
390945.809,-1.0983448,-9.6889702,0.97085835,-0.026,0.086,0.019
390945.849,-1.24544455,-9.62032365,0.91201845,-0.025,0.097,0.017
390945.889,-1.3533177,-9.7478101,0.8825985,-0.025,0.063,0.015
390945.929,-1.3827376499999997,-9.7281968,0.93163175,-0.016,0.008,0.01
390945.969,-1.3140911,-9.7281968,0.93163175,0.002,-0.034,0.016
390946.009,-1.2356379,-9.7478101,0.93163175,0.001,-0.037,0.003
390946.049,-1.26505785,-9.60071035,0.9414384,0.004,-0.038,-0.018
390946.089,-1.22583125,-9.6889702,0.8924051499999999,-0.003,-0.038,-0.018
390946.129,-1.1964112999999998,-9.610517,0.9610517,-0.013,-0.015,-0.004
390946.169,-1.2356379,-9.71839015,0.8924051499999999,-0.014,-0.01,-0.001
390946.209,-1.14737805,-9.7281968,1.0296982499999998,-0.007,0.04,0.029
390946.249,-1.30428445,-9.6301303,0.97085835,-0.007,0.101,0.026
390946.289,-1.4317708999999998,-9.6889702,0.93163175,0.002,0.048,0.004
390946.329,-1.4709975,-9.69877685,0.93163175,0.006,0.003,-0.0
390946.369,-1.4121575999999998,-9.6497436,0.91201845,0.016,-0.056,-0.007
390946.409,-1.3337044,-9.6497436,0.9610517,0.004,-0.026,0.01
390946.449,-1.3533177,-9.610517,0.97085835,0.002,-0.01,0.02
390946.489,-1.4023509499999998,-9.7085835,1.0296982499999998,-0.004,0.045,0.015
390946.528,-1.5102240999999998,-9.7085835,0.980665,0.01,0.02,0.015
390946.568,-1.52003075,-9.6497436,0.8924051499999999,0.02,-0.046,0.024
390946.608,-1.3337044,-9.610517,0.9610517,0.015,-0.07,0.017
390946.648,-1.2748645,-9.69877685,1.0002783,0.006,-0.027,0.018
390946.688,-1.2944778,-9.73800345,1.0002783,0.009,0.009,0.015
390946.728,-1.372931,-9.6497436,0.97085835,0.014,0.011,-0.004
390946.768,-1.3533177,-9.6497436,0.93163175,0.017,-0.027,-0.007
390946.808,-1.2944778,-9.610517,0.980665,0.005,-0.001,-0.001
390946.848,-1.3337044,-9.6497436,0.97085835,-0.003,0.029,-0.007
390946.888,-1.3533177,-9.6497436,1.01008495,-0.01,0.037,-0.008
390946.928,-1.4121575999999998,-9.65955025,0.980665,-0.01,0.018,-0.017
390946.968,-1.4023509499999998,-9.65955025,0.99047165,-0.015,0.017,-0.017
390947.008,-1.4317708999999998,-9.610517,0.99047165,-0.021,0.014,-0.007
390947.048,-1.4317708999999998,-9.7085835,1.0002783,-0.015,0.01,-0.013
390947.088,-1.4317708999999998,-9.69877685,1.0591182,-0.011,0.012,-0.008
390947.128,-1.44157755,-9.590903699999998,1.0002783,-0.001,-0.001,-0.005
390947.168,-1.4317708999999998,-9.6301303,0.93163175,-0.011,-0.008,0.001
390947.208,-1.3925442999999995,-9.6889702,0.97085835,-0.015,-0.034,0.001
390947.248,-1.26505785,-9.6889702,1.06892485,-0.009,-0.022,-0.003
390947.288,-1.32389775,-9.71839015,1.0198915999999998,-0.006,0.006,-0.022
390947.328,-1.3827376499999997,-9.5516771,0.97085835,-0.007,0.013,-0.031
390947.368,-1.4317708999999998,-9.75761675,0.9022118,-0.009,-0.011,-0.02
390947.408,-1.2944778,-9.7478101,1.04931155,0.001,-0.02,0.0
390947.448,-1.26505785,-9.590903699999998,1.0395048999999998,0.001,0.009,-0.019
390947.488,-1.3140911,-9.67916355,0.8924051499999999,-0.004,0.009,-0.031
390947.528,-1.3337044,-9.63993695,0.93163175,-0.026,0.021,-0.029
390947.567,-1.3533177,-9.610517,0.99047165,-0.027,0.015,-0.042
390947.607,-1.3925442999999995,-9.7085835,0.91201845,-0.022,-0.021,-0.032
390947.647,-1.3337044,-9.7478101,0.97085835,-0.02,-0.025,-0.025
390947.687,-1.2748645,-9.610517,1.0198915999999998,-0.007,-0.003,-0.012
390947.727,-1.32389775,-9.65955025,0.8629851999999999,-0.011,-0.002,-0.003
390947.767,-1.2748645,-9.6889702,0.9414384,-0.017,-0.019,-0.001
390947.807,-1.22583125,-9.6889702,1.01008495,-0.011,0.012,0.001
390947.847,-1.2944778,-9.67916355,0.91201845,-0.008,0.01,-0.001
390947.887,-1.2944778,-9.6693569,0.9414384,-0.01,0.006,-0.002
390947.927,-1.3140911,-9.7085835,0.93163175,-0.006,0.0,-0.003
390947.967,-1.2944778,-9.65955025,0.99047165,-0.003,-0.008,-0.005
390948.007,-1.30428445,-9.7478101,0.93163175,0.003,-0.021,-0.002
390948.047,-1.1866046499999998,-9.7085835,0.99047165,0.011,-0.024,0.019
390948.087,-1.20621795,-9.60071035,0.980665,0.0,0.019,0.003
390948.127,-1.28467115,-9.6497436,0.9218251,-0.004,0.007,-0.02
390948.167,-1.2944778,-9.7281968,0.95124505,-0.008,0.006,-0.005
390948.207,-1.34351105,-9.69877685,0.980665,-0.009,-0.004,-0.029
390948.247,-1.32389775,-9.6497436,1.01008495,0.004,-0.02,-0.018
390948.287,-1.36312435,-9.65955025,0.9218251,0.001,-0.022,0.002
390948.327,-1.3337044,-9.69877685,0.97085835,-0.001,-0.03,-0.01
390948.367,-1.26505785,-9.67916355,1.04931155,0.007,-0.034,-0.002
390948.407,-1.2748645,-9.67916355,0.95124505,0.01,-0.023,0.002
390948.447,-1.2552512,-9.67916355,0.9414384,0.002,-0.021,0.003
390948.487,-1.22583125,-9.67916355,0.97085835,-0.001,-0.018,0.007
390948.527,-1.2160246,-9.63993695,1.01008495,0.0,-0.0,0.005
390948.567,-1.26505785,-9.7085835,0.9610517,-0.001,0.022,0.003
390948.607,-1.26505785,-9.60071035,0.99047165,-0.003,0.02,0.007
390948.646,-1.34351105,-9.75761675,0.9414384,-0.004,0.002,-0.01
390948.686,-1.2552512,-9.67916355,1.0198915999999998,0.009,-0.029,0.005
390948.726,-1.22583125,-9.67916355,0.97085835,0.007,-0.002,0.009
390948.766,-1.2356379,-9.6301303,1.01008495,-0.002,0.028,-0.013
390948.806,-1.30428445,-9.67916355,1.01008495,-0.006,0.043,0.0
390948.846,-1.4121575999999998,-9.62032365,0.99047165,-0.009,0.035,-0.004
390948.886,-1.4121575999999998,-9.6497436,1.0198915999999998,-0.006,-0.006,-0.014
390948.926,-1.3925442999999995,-9.6693569,1.01008495,-0.001,-0.024,0.001
390948.966,-1.36312435,-9.6693569,1.0395048999999998,0.0,-0.033,-0.003
390949.006,-1.3337044,-9.6889702,1.0787315,-0.003,-0.01,0.003
390949.046,-1.3925442999999995,-9.6497436,1.0002783,0.001,-0.022,0.0
390949.086,-1.34351105,-9.63993695,1.0296982499999998,-0.001,-0.03,-0.001
390949.126,-1.2944778,-9.6693569,1.0296982499999998,-0.002,-0.025,0.005
390949.166,-1.2944778,-9.71839015,1.0591182,-0.002,-0.006,-0.003
390949.206,-1.34351105,-9.590903699999998,1.0296982499999998,-0.002,0.015,-0.009
390949.246,-1.36312435,-9.6889702,0.97085835,-0.001,-0.02,-0.002
390949.286,-1.2944778,-9.7281968,1.0198915999999998,-0.001,-0.011,0.004
390949.326,-1.2356379,-9.610517,1.06892485,-0.005,0.018,-0.005
390949.366,-1.32389775,-9.610517,0.980665,-0.011,0.033,-0.012
390949.406,-1.3533177,-9.67916355,0.99047165,-0.021,0.022,-0.003
390949.446,-1.34351105,-9.67916355,1.04931155,-0.022,0.023,-0.005
390949.486,-1.36312435,-9.6889702,1.0002783,-0.01,0.005,-0.016
390949.526,-1.32389775,-9.69877685,1.0198915999999998,-0.01,0.001,-0.007
390949.566,-1.3337044,-9.6497436,0.980665,-0.007,-0.0,-0.007
390949.606,-1.3140911,-9.67916355,1.01008495,-0.009,0.013,-0.003
390949.646,-1.3533177,-9.67916355,0.97085835,-0.004,-0.005,0.0
390949.685,-1.28467115,-9.65955025,1.0198915999999998,-0.003,0.004,-0.001
390949.725,-1.3140911,-9.6693569,0.97085835,-0.007,0.006,0.005
390949.765,-1.3337044,-9.6693569,1.01008495,-0.005,0.01,-0.006
390949.805,-1.3533177,-9.6693569,0.97085835,-0.003,-0.002,0.004
390949.845,-1.34351105,-9.7478101,0.95124505,-0.0,-0.022,0.011
390949.885,-1.2748645,-9.67916355,1.0296982499999998,-0.003,-0.017,-0.005
390949.925,-1.2552512,-9.5712904,1.0395048999999998,-0.004,0.004,-0.003
390949.965,-1.372931,-9.63993695,0.9414384,-0.014,0.015,0.001
390950.005,-1.4023509499999998,-9.71839015,0.99047165,-0.014,0.004,0.005
390950.045,-1.36312435,-9.7085835,1.0296982499999998,-0.002,-0.027,0.004
390950.085,-1.2944778,-9.6301303,1.0198915999999998,0.004,-0.043,0.003
390950.125,-1.24544455,-9.6301303,0.99047165,-0.003,-0.015,0.009
390950.165,-1.2552512,-9.6889702,1.0591182,-0.007,0.031,0.006
390950.205,-1.4023509499999998,-9.60071035,0.99047165,-0.014,0.058,-0.006
390950.245,-1.4513842,-9.75761675,0.95124505,-0.009,-0.027,0.002
390950.285,-1.3337044,-9.62032365,1.0787315,-0.006,-0.022,-0.01
390950.325,-1.3140911,-9.7478101,1.0198915999999998,-0.002,0.0,0.003
390950.365,-1.34351105,-9.590903699999998,1.0296982499999998,-0.006,0.026,0.014
390950.405,-1.4023509499999998,-9.63993695,0.99047165,-0.008,0.005,-0.011
390950.445,-1.36312435,-9.71839015,1.0198915999999998,-0.002,-0.022,-0.003
390950.485,-1.34351105,-9.6889702,1.0395048999999998,-0.003,-0.015,-0.01
390950.525,-1.34351105,-9.590903699999998,1.0395048999999998,-0.003,-0.002,-0.013
390950.565,-1.36312435,-9.6301303,1.01008495,-0.007,0.008,0.004
390950.605,-1.4121575999999998,-9.7281968,1.0002783,-0.009,0.023,0.004
390950.645,-1.3925442999999995,-9.5320638,1.1179581,-0.004,0.019,0.002
390950.685,-1.44157755,-9.79684335,0.9218251,0.011,-0.034,0.009
390950.724,-1.3827376499999997,-9.73800345,1.0395048999999998,-0.002,0.002,0.001
390950.764,-1.3827376499999997,-9.4732239,1.04931155,0.006,-0.023,-0.026
390950.804,-1.4121575999999998,-9.63993695,0.9218251,-0.012,-0.034,-0.01
390950.844,-1.34351105,-9.7085835,1.0296982499999998,-0.014,-0.037,-0.014
390950.884,-1.3140911,-9.69877685,1.08853815,-0.012,0.024,0.009
390950.924,-1.3925442999999995,-9.60071035,1.0002783,-0.003,0.023,0.001
390950.964,-1.4709975,-9.6301303,0.93163175,-0.013,-0.011,-0.009
390951.004,-1.34351105,-9.7281968,1.0395048999999998,-0.008,-0.022,0.011
390951.044,-1.30428445,-9.58109705,1.0787315,-0.007,0.024,0.012
390951.084,-1.44157755,-9.69877685,0.9022118,-0.01,-0.001,-0.017
390951.124,-1.3827376499999997,-9.7478101,1.0198915999999998,-0.013,-0.028,-0.014
390951.164,-1.3533177,-9.56148375,1.06892485,-0.001,-0.021,-0.015
390951.204,-1.34351105,-9.7085835,0.9610517,0.004,-0.003,0.009
390951.244,-1.3925442999999995,-9.610517,0.99047165,-0.016,0.039,0.007
390951.284,-1.4219642499999998,-9.65955025,1.0002783,-0.004,-0.011,-0.01
390951.324,-1.36312435,-9.6889702,1.0395048999999998,-0.009,-0.023,-0.006
390951.364,-1.4023509499999998,-9.65955025,0.97085835,-0.01,-0.009,-0.015
390951.404,-1.3827376499999997,-9.590903699999998,1.0198915999999998,-0.02,-0.009,-0.012
390951.444,-1.3925442999999995,-9.6693569,1.01008495,-0.018,-0.009,-0.01
390951.484,-1.3827376499999997,-9.7281968,1.0198915999999998,-0.01,-0.008,-0.007
390951.524,-1.3925442999999995,-9.6497436,1.0002783,-0.007,-0.009,-0.014
390951.564,-1.36312435,-9.63993695,1.0002783,-0.007,-0.019,-0.015
390951.604,-1.3533177,-9.67916355,0.980665,-0.005,-0.022,-0.019
390951.644,-1.2748645,-9.6889702,1.04931155,-0.005,0.01,-0.006
390951.684,-1.34351105,-9.590903699999998,1.01008495,-0.006,0.03,0.002
390951.724,-1.3827376499999997,-9.67916355,0.95124505,-0.001,-0.001,-0.01
390951.764,-1.32389775,-9.7478101,0.980665,-0.003,-0.001,0.007
390951.803,-1.32389775,-9.69877685,1.0198915999999998,-0.008,-0.006,-0.019
390951.843,-1.36312435,-9.6693569,1.04931155,0.002,-0.018,-0.041
390951.883,-1.4121575999999998,-9.71839015,0.9610517,-0.006,-0.005,-0.013
390951.923,-1.36312435,-9.67916355,1.0002783,0.004,-0.049,-0.007
390951.963,-1.28467115,-9.58109705,1.0198915999999998,0.007,-0.052,-0.013
390952.003,-1.24544455,-9.67916355,0.9414384,0.001,-0.051,-0.023
390952.043,-1.1866046499999998,-9.610517,1.01008495,-0.011,-0.013,-0.016
390952.083,-1.22583125,-9.6497436,1.0395048999999998,-0.021,0.037,-0.013
390952.123,-1.3827376499999997,-9.7281968,0.99047165,-0.021,0.054,-0.017
390952.163,-1.4219642499999998,-9.65955025,0.9414384,-0.011,0.006,0.002
390952.203,-1.3337044,-9.62032365,0.980665,-0.011,-0.04,0.003
390952.243,-1.1964112999999998,-9.67916355,1.0198915999999998,-0.011,-0.034,0.005
390952.283,-1.16699135,-9.7281968,1.0591182,-0.014,0.032,0.003
390952.323,-1.3140911,-9.62032365,0.99047165,-0.016,0.073,-0.001
390952.363,-1.4219642499999998,-9.6301303,0.93163175,-0.018,0.028,0.002
390952.403,-1.3533177,-9.6889702,0.99047165,-0.013,0.003,0.015
390952.443,-1.3533177,-9.6693569,1.01008495,-0.019,-0.001,0.0
390952.483,-1.3140911,-9.75761675,1.06892485,-0.005,-0.01,-0.006
390952.523,-1.3533177,-9.63993695,1.0198915999999998,-0.0,0.009,0.006
390952.563,-1.4219642499999998,-9.58109705,0.9218251,-0.012,-0.01,-0.003
390952.603,-1.3533177,-9.7281968,1.04931155,-0.015,-0.036,-0.01
390952.643,-1.3827376499999997,-9.7281968,1.0395048999999998,-0.001,-0.021,-0.005
390952.683,-1.372931,-9.62032365,0.9414384,0.001,-0.058,-0.011
390952.723,-1.2748645,-9.6301303,0.93163175,-0.001,-0.083,-0.006
390952.763,-1.1571847,-9.67916355,1.0591182,-0.006,-0.046,-0.014
390952.803,-1.20621795,-9.71839015,1.08853815,-0.003,0.046,0.001
390952.842,-1.4219642499999998,-9.65955025,0.95124505,0.001,0.037,-0.005
390952.882,-1.4219642499999998,-9.6497436,0.9414384,0.005,-0.021,-0.011
390952.922,-1.34351105,-9.65955025,0.9414384,0.001,-0.056,-0.004
390952.962,-1.14737805,-9.65955025,1.0787315,-0.002,-0.026,0.01
390953.002,-1.28467115,-9.60071035,0.99047165,-0.018,0.052,-0.013
390953.042,-1.4121575999999998,-9.6301303,0.95124505,-0.021,0.048,-0.01
390953.082,-1.4906107999999998,-9.7085835,0.93163175,-0.022,-0.007,-0.001
390953.122,-1.3827376499999997,-9.7085835,1.01008495,-0.012,-0.053,-0.01
390953.162,-1.26505785,-9.65955025,1.0591182,-0.004,-0.029,0.002
390953.202,-1.2944778,-9.62032365,0.95124505,-0.01,0.005,0.007
390953.242,-1.30428445,-9.6889702,1.0002783,-0.017,0.016,0.007
390953.282,-1.36312435,-9.6889702,1.01008495,-0.01,0.019,0.004
390953.322,-1.3533177,-9.7478101,0.9414384,-0.002,-0.025,-0.007
390953.362,-1.30428445,-9.63993695,0.99047165,-0.003,-0.021,-0.005
